{
  "resourceType": "Bundle",
  "type": "transaction",
  "entry": [
    {
      "fullUrl": "urn:uuid:b00d641f-bf17-4a33-9e1a-d1b8dbcd3a78",
      "resource": {
        "resourceType": "Patient",
        "id": "b00d641f-bf17-4a33-9e1a-d1b8dbcd3a78",
        "name": [
          {
            "family": "Stepanenko",
            "given": [
              "Daria"
            ]
          }
        ],
        "gender": "female",
        "birthDate": "2014-01-01",
        "address": [
          {}
        ]
      },
      "request": {
        "method": "POST",
        "url": "Patient"
      }
    },
    {
      "fullUrl": "urn:uuid:f4443167-ad58-4045-ad17-06dc8f7fe9e9",
      "resource": {
        "resourceType": "Encounter",
        "id": "f4443167-ad58-4045-ad17-06dc8f7fe9e9",
        "identifier": [
          {
            "use": "temp",
            "value": "Encounter_Daria Stepanenko_20251023103405"
          }
        ],
        "status": "completed",
        "priority": {
          "coding": [
            {
              "system": "http://snomed.info/sct",
              "code": "17621005",
              "display": "Normal"
            }
          ]
        },
        "type": [
          {
            "coding": [
              {
                "system": "http://snomed.info/sct",
                "code": "11429006",
                "display": "Consultation"
              }
            ]
          }
        ],
        "subject": {
          "reference": "Patient/b00d641f-bf17-4a33-9e1a-d1b8dbcd3a78",
          "display": "Daria Stepanenko"
        },
        "reason": [
          {
            "value": [
              {
                "concept": {
                  "text": "poor linear growth"
                }
              }
            ]
          }
        ]
      },
      "request": {
        "method": "POST",
        "url": "Encounter"
      }
    },
    {
      "fullUrl": "urn:uuid:f62eff53-afea-4b3a-a68c-e9333bdfe807",
      "resource": {
        "resourceType": "Observation",
        "id": "f62eff53-afea-4b3a-a68c-e9333bdfe807",
        "status": "final",
        "category": [
          {
            "coding": [
              {
                "system": "http://terminology.hl7.org/CodeSystem/observation-category",
                "code": "laboratory",
                "display": "Laboratory"
              }
            ],
            "text": "Laboratory"
          }
        ],
        "code": {
          "coding": [
            {
              "system": "http://loinc.org",
              "code": "14177-0",
              "display": "GHRH SerPl-mCnc"
            }
          ],
          "text": "Growth Hormone"
        },
        "subject": {
          "reference": "Patient/b00d641f-bf17-4a33-9e1a-d1b8dbcd3a78"
        },
        "encounter": {
          "reference": "Encounter/f4443167-ad58-4045-ad17-06dc8f7fe9e9"
        },
        "effectiveDateTime": "2025-10-16",
        "valueQuantity": {
          "value": 8.2,
          "unit": "ng/mL",
          "system": "http://unitsofmeasure.org",
          "code": "ng/mL"
        },
        "interpretation": [
          {
            "coding": [
              {
                "system": "http://terminology.hl7.org/CodeSystem/v3-ObservationInterpretation",
                "code": "N",
                "display": "Normal"
              }
            ]
          }
        ],
        "note": [
          {
            "text": "Definition: https://loinc.org/14177-0/"
          }
        ]
      },
      "request": {
        "method": "POST",
        "url": "Observation"
      }
    },
    {
      "fullUrl": "urn:uuid:02b6949e-468f-45ce-b23d-a8364231dffa",
      "resource": {
        "resourceType": "Observation",
        "id": "02b6949e-468f-45ce-b23d-a8364231dffa",
        "status": "final",
        "category": [
          {
            "coding": [
              {
                "system": "http://terminology.hl7.org/CodeSystem/observation-category",
                "code": "laboratory",
                "display": "Laboratory"
              }
            ],
            "text": "Laboratory"
          }
        ],
        "code": {
          "coding": [
            {
              "system": "http://loinc.org",
              "code": "69945-4",
              "display": "IGF BP1 Vag Ql"
            }
          ],
          "text": "Insulin-like Growth Factor 1"
        },
        "subject": {
          "reference": "Patient/b00d641f-bf17-4a33-9e1a-d1b8dbcd3a78"
        },
        "encounter": {
          "reference": "Encounter/f4443167-ad58-4045-ad17-06dc8f7fe9e9"
        },
        "effectiveDateTime": "2025-10-16",
        "valueQuantity": {
          "value": 32.0,
          "unit": "ng/mL",
          "system": "http://unitsofmeasure.org",
          "code": "ng/mL"
        },
        "interpretation": [
          {
            "coding": [
              {
                "system": "http://terminology.hl7.org/CodeSystem/v3-ObservationInterpretation",
                "code": "L",
                "display": "Low"
              }
            ]
          }
        ],
        "note": [
          {
            "text": "Definition: https://loinc.org/69945-4/"
          }
        ]
      },
      "request": {
        "method": "POST",
        "url": "Observation"
      }
    },
    {
      "fullUrl": "urn:uuid:ed78f175-58e3-4200-96c0-947e007391ba",
      "resource": {
        "resourceType": "Observation",
        "id": "ed78f175-58e3-4200-96c0-947e007391ba",
        "status": "final",
        "category": [
          {
            "coding": [
              {
                "system": "http://terminology.hl7.org/CodeSystem/observation-category",
                "code": "exam",
                "display": "Exam"
              }
            ],
            "text": "Exam"
          }
        ],
        "code": {
          "coding": [
            {
              "system": "http://snomed.info/sct",
              "code": "247525002",
              "display": "Poor hair growth"
            }
          ],
          "text": "Poor linear growth"
        },
        "subject": {
          "reference": "Patient/b00d641f-bf17-4a33-9e1a-d1b8dbcd3a78"
        },
        "encounter": {
          "reference": "Encounter/f4443167-ad58-4045-ad17-06dc8f7fe9e9"
        },
        "effectivePeriod": {
          "start": "2025-10-16"
        },
        "valueBoolean": true,
        "note": [
          {
            "text": "Definition: https://snomed.info/id/247525002"
          }
        ]
      },
      "request": {
        "method": "POST",
        "url": "Observation"
      }
    },
    {
      "fullUrl": "urn:uuid:f4de75a8-1c29-42e7-8bec-cf4ffca0df6e",
      "resource": {
        "resourceType": "Observation",
        "id": "f4de75a8-1c29-42e7-8bec-cf4ffca0df6e",
        "status": "final",
        "category": [
          {
            "coding": [
              {
                "system": "http://terminology.hl7.org/CodeSystem/observation-category",
                "code": "vital-signs",
                "display": "Vital Signs"
              }
            ],
            "text": "Vital Signs"
          }
        ],
        "code": {
          "coding": [
            {
              "system": "http://loinc.org",
              "code": "92998-4",
              "display": "Lower segment"
            }
          ],
          "text": "height"
        },
        "subject": {
          "reference": "Patient/b00d641f-bf17-4a33-9e1a-d1b8dbcd3a78"
        },
        "encounter": {
          "reference": "Encounter/f4443167-ad58-4045-ad17-06dc8f7fe9e9"
        },
        "effectiveDateTime": "2025-10-16",
        "valueQuantity": {
          "value": 120.0,
          "unit": "cm",
          "system": "http://unitsofmeasure.org",
          "code": "cm"
        }
      },
      "request": {
        "method": "POST",
        "url": "Observation"
      }
    },
    {
      "fullUrl": "urn:uuid:a779d0ac-5b90-490a-98fa-4ac1b528ef8a",
      "resource": {
        "resourceType": "Observation",
        "id": "a779d0ac-5b90-490a-98fa-4ac1b528ef8a",
        "status": "final",
        "category": [
          {
            "coding": [
              {
                "system": "http://terminology.hl7.org/CodeSystem/observation-category",
                "code": "vital-signs",
                "display": "Vital Signs"
              }
            ],
            "text": "Vital Signs"
          }
        ],
        "code": {
          "coding": [
            {
              "system": "http://loinc.org",
              "code": "8337-8",
              "display": "Bdy weight special circumstances"
            }
          ],
          "text": "weight"
        },
        "subject": {
          "reference": "Patient/b00d641f-bf17-4a33-9e1a-d1b8dbcd3a78"
        },
        "encounter": {
          "reference": "Encounter/f4443167-ad58-4045-ad17-06dc8f7fe9e9"
        },
        "effectiveDateTime": "2025-10-16",
        "valueQuantity": {
          "value": 26.0,
          "unit": "kg",
          "system": "http://unitsofmeasure.org",
          "code": "kg"
        }
      },
      "request": {
        "method": "POST",
        "url": "Observation"
      }
    },
    {
      "fullUrl": "urn:uuid:b08b6f7b-0b06-4692-ae51-aa52a17c8478",
      "resource": {
        "resourceType": "Observation",
        "id": "b08b6f7b-0b06-4692-ae51-aa52a17c8478",
        "status": "final",
        "category": [
          {
            "coding": [
              {
                "system": "http://terminology.hl7.org/CodeSystem/observation-category",
                "code": "vital-signs",
                "display": "Vital Signs"
              }
            ],
            "text": "Vital Signs"
          }
        ],
        "code": {
          "coding": [
            {
              "system": "http://loinc.org",
              "code": "107102-6",
              "display": "BMI formula"
            }
          ],
          "text": "BMI"
        },
        "subject": {
          "reference": "Patient/b00d641f-bf17-4a33-9e1a-d1b8dbcd3a78"
        },
        "encounter": {
          "reference": "Encounter/f4443167-ad58-4045-ad17-06dc8f7fe9e9"
        },
        "effectiveDateTime": "2025-10-16",
        "valueQuantity": {
          "value": 18.0,
          "unit": "kg/m²",
          "system": "http://unitsofmeasure.org",
          "code": "kg/m²"
        }
      },
      "request": {
        "method": "POST",
        "url": "Observation"
      }
    },
    {
      "fullUrl": "urn:uuid:a8ad889c-ef2c-496d-a369-7a68079eff6b",
      "resource": {
        "resourceType": "List",
        "id": "a8ad889c-ef2c-496d-a369-7a68079eff6b",
        "contained": [
          {
            "resourceType": "FamilyMemberHistory",
            "id": "fmh-2",
            "status": "completed",
            "patient": {
              "reference": "Patient/b00d641f-bf17-4a33-9e1a-d1b8dbcd3a78"
            },
            "relationship": {
              "coding": [
                {
                  "system": "http://snomed.info/sct",
                  "code": "66839005",
                  "display": "Father"
                }
              ]
            },
            "deceasedBoolean": false,
            "condition": []
          }
        ],
        "status": "current",
        "mode": "snapshot",
        "code": {
          "coding": [
            {
              "system": "http://loinc.org",
              "code": "8670-2",
              "display": "History of family member diseases"
            }
          ]
        },
        "subject": [
          {
            "reference": "Patient/b00d641f-bf17-4a33-9e1a-d1b8dbcd3a78"
          }
        ],
        "note": [
          {
            "text": "Both parents are healthy."
          }
        ],
        "entry": [
          {
            "item": {
              "reference": "#fmh-2"
            }
          }
        ]
      },
      "request": {
        "method": "POST",
        "url": "FamilyMemberHistory"
      }
    }
  ]
}