{
  "resourceType": "Bundle",
  "type": "transaction",
  "entry": [
    {
      "fullUrl": "urn:uuid:7f885d99-5470-493e-818a-18ae67546439",
      "resource": {
        "resourceType": "Patient",
        "id": "7f885d99-5470-493e-818a-18ae67546439",
        "name": [
          {
            "family": "N.",
            "given": [
              "Irina"
            ]
          }
        ],
        "gender": "female",
        "address": [
          {}
        ]
      },
      "request": {
        "method": "POST",
        "url": "Patient"
      }
    },
    {
      "fullUrl": "urn:uuid:d7310eda-ab63-497b-94af-bb9ae97da1b6",
      "resource": {
        "resourceType": "Encounter",
        "id": "d7310eda-ab63-497b-94af-bb9ae97da1b6",
        "identifier": [
          {
            "use": "temp",
            "value": "Encounter_Irina N._20251017122422"
          }
        ],
        "status": "completed",
        "priority": {
          "coding": [
            {
              "system": "http://snomed.info/sct",
              "code": "17621005",
              "display": "Normal"
            }
          ]
        },
        "type": [
          {
            "coding": [
              {
                "system": "http://snomed.info/sct",
                "code": "11429006",
                "display": "Consultation"
              }
            ]
          }
        ],
        "subject": {
          "reference": "Patient/7f885d99-5470-493e-818a-18ae67546439",
          "display": "Irina N."
        },
        "reason": [
          {
            "value": [
              {
                "concept": {
                  "text": "persistent fatigue and mild pruritus over 6 months"
                }
              }
            ]
          }
        ]
      },
      "request": {
        "method": "POST",
        "url": "Encounter"
      }
    },
    {
      "fullUrl": "urn:uuid:b88cc19b-de68-415d-b1c0-0eb633dfb6d9",
      "resource": {
        "resourceType": "Observation",
        "id": "b88cc19b-de68-415d-b1c0-0eb633dfb6d9",
        "status": "final",
        "category": [
          {
            "coding": [
              {
                "system": "http://terminology.hl7.org/CodeSystem/observation-category",
                "code": "laboratory",
                "display": "Laboratory"
              }
            ],
            "text": "Laboratory"
          }
        ],
        "code": {
          "coding": [
            {
              "system": "http://loinc.org",
              "code": "62898-2",
              "display": "PhenX - alkaline phosphatase protocol 170101"
            }
          ],
          "text": "Alkaline Phosphatase"
        },
        "subject": {
          "reference": "Patient/7f885d99-5470-493e-818a-18ae67546439"
        },
        "encounter": {
          "reference": "Encounter/d7310eda-ab63-497b-94af-bb9ae97da1b6"
        },
        "effectiveDateTime": "2025-10-17T10:24:23.038491Z",
        "valueQuantity": {
          "value": 280.0,
          "unit": "U/L",
          "system": "http://unitsofmeasure.org",
          "code": "U/L"
        },
        "interpretation": [
          {
            "coding": [
              {
                "system": "http://terminology.hl7.org/CodeSystem/v3-ObservationInterpretation",
                "code": "H",
                "display": "High"
              }
            ]
          }
        ],
        "note": [
          {
            "text": "Definition: https://loinc.org/62898-2/"
          }
        ]
      },
      "request": {
        "method": "POST",
        "url": "Observation"
      }
    },
    {
      "fullUrl": "urn:uuid:c0a6619d-41e5-4ff8-9d95-42b0d6ede4e9",
      "resource": {
        "resourceType": "Observation",
        "id": "c0a6619d-41e5-4ff8-9d95-42b0d6ede4e9",
        "status": "final",
        "category": [
          {
            "coding": [
              {
                "system": "http://terminology.hl7.org/CodeSystem/observation-category",
                "code": "laboratory",
                "display": "Laboratory"
              }
            ],
            "text": "Laboratory"
          }
        ],
        "code": {
          "coding": [
            {
              "system": "http://loinc.org",
              "code": "109056-2",
              "display": "tTG IgG Msmt Ser"
            }
          ],
          "text": "Gamma-Glutamyltransferase"
        },
        "subject": {
          "reference": "Patient/7f885d99-5470-493e-818a-18ae67546439"
        },
        "encounter": {
          "reference": "Encounter/d7310eda-ab63-497b-94af-bb9ae97da1b6"
        },
        "effectiveDateTime": "2025-10-17T10:24:23.243505Z",
        "valueQuantity": {
          "value": 110.0,
          "unit": "U/L",
          "system": "http://unitsofmeasure.org",
          "code": "U/L"
        },
        "interpretation": [
          {
            "coding": [
              {
                "system": "http://terminology.hl7.org/CodeSystem/v3-ObservationInterpretation",
                "code": "H",
                "display": "High"
              }
            ]
          }
        ],
        "note": [
          {
            "text": "Definition: https://loinc.org/109056-2/"
          }
        ]
      },
      "request": {
        "method": "POST",
        "url": "Observation"
      }
    },
    {
      "fullUrl": "urn:uuid:622fd884-c099-409a-a880-366ef4e27d4b",
      "resource": {
        "resourceType": "Observation",
        "id": "622fd884-c099-409a-a880-366ef4e27d4b",
        "status": "final",
        "category": [
          {
            "coding": [
              {
                "system": "http://terminology.hl7.org/CodeSystem/observation-category",
                "code": "laboratory",
                "display": "Laboratory"
              }
            ],
            "text": "Laboratory"
          }
        ],
        "code": {
          "coding": [
            {
              "system": "http://loinc.org",
              "code": "1917-4",
              "display": "AST Amn-cCnc"
            }
          ],
          "text": "Aspartate Aminotransferase"
        },
        "subject": {
          "reference": "Patient/7f885d99-5470-493e-818a-18ae67546439"
        },
        "encounter": {
          "reference": "Encounter/d7310eda-ab63-497b-94af-bb9ae97da1b6"
        },
        "effectiveDateTime": "2025-10-17T10:24:23.447751Z",
        "interpretation": [
          {
            "coding": [
              {
                "system": "http://terminology.hl7.org/CodeSystem/v3-ObservationInterpretation",
                "code": "A",
                "display": "Abnormal"
              }
            ]
          }
        ],
        "note": [
          {
            "text": "Definition: https://loinc.org/1917-4/"
          }
        ]
      },
      "request": {
        "method": "POST",
        "url": "Observation"
      }
    },
    {
      "fullUrl": "urn:uuid:7738948c-11d7-4d78-9ed4-cf3515db7418",
      "resource": {
        "resourceType": "Observation",
        "id": "7738948c-11d7-4d78-9ed4-cf3515db7418",
        "status": "final",
        "category": [
          {
            "coding": [
              {
                "system": "http://terminology.hl7.org/CodeSystem/observation-category",
                "code": "laboratory",
                "display": "Laboratory"
              }
            ],
            "text": "Laboratory"
          }
        ],
        "code": {
          "coding": [
            {
              "system": "http://loinc.org",
              "code": "69478-6",
              "display": "AGXT gene Del+Dup Bld/T MLPA"
            }
          ],
          "text": "Alanine Aminotransferase"
        },
        "subject": {
          "reference": "Patient/7f885d99-5470-493e-818a-18ae67546439"
        },
        "encounter": {
          "reference": "Encounter/d7310eda-ab63-497b-94af-bb9ae97da1b6"
        },
        "effectiveDateTime": "2025-10-17T10:24:23.652574Z",
        "interpretation": [
          {
            "coding": [
              {
                "system": "http://terminology.hl7.org/CodeSystem/v3-ObservationInterpretation",
                "code": "A",
                "display": "Abnormal"
              }
            ]
          }
        ],
        "note": [
          {
            "text": "Definition: https://loinc.org/69478-6/"
          }
        ]
      },
      "request": {
        "method": "POST",
        "url": "Observation"
      }
    },
    {
      "fullUrl": "urn:uuid:7ad34001-14c8-4a0c-8038-41bc1f1ae30d",
      "resource": {
        "resourceType": "Observation",
        "id": "7ad34001-14c8-4a0c-8038-41bc1f1ae30d",
        "status": "final",
        "category": [
          {
            "coding": [
              {
                "system": "http://terminology.hl7.org/CodeSystem/observation-category",
                "code": "laboratory",
                "display": "Laboratory"
              }
            ],
            "text": "Laboratory"
          }
        ],
        "code": {
          "coding": [
            {
              "system": "http://loinc.org",
              "code": "78442-1",
              "display": "Bilirub Indirect Prt-sCnc"
            }
          ],
          "text": "Bilirubin"
        },
        "subject": {
          "reference": "Patient/7f885d99-5470-493e-818a-18ae67546439"
        },
        "encounter": {
          "reference": "Encounter/d7310eda-ab63-497b-94af-bb9ae97da1b6"
        },
        "effectiveDateTime": "2025-10-17T10:24:23.857647Z",
        "interpretation": [
          {
            "coding": [
              {
                "system": "http://terminology.hl7.org/CodeSystem/v3-ObservationInterpretation",
                "code": "N",
                "display": "Normal"
              }
            ]
          }
        ],
        "note": [
          {
            "text": "Definition: https://loinc.org/78442-1/"
          }
        ]
      },
      "request": {
        "method": "POST",
        "url": "Observation"
      }
    },
    {
      "fullUrl": "urn:uuid:340a3dc6-22fc-414d-ad64-538a79350494",
      "resource": {
        "resourceType": "Observation",
        "id": "340a3dc6-22fc-414d-ad64-538a79350494",
        "status": "final",
        "category": [
          {
            "coding": [
              {
                "system": "http://terminology.hl7.org/CodeSystem/observation-category",
                "code": "laboratory",
                "display": "Laboratory"
              }
            ],
            "text": "Laboratory"
          }
        ],
        "code": {
          "coding": [
            {
              "system": "http://loinc.org",
              "code": "111378-6",
              "display": "Mitochondria Ab Msmt Ser"
            }
          ],
          "text": "Antimitochondrial Antibody"
        },
        "subject": {
          "reference": "Patient/7f885d99-5470-493e-818a-18ae67546439"
        },
        "encounter": {
          "reference": "Encounter/d7310eda-ab63-497b-94af-bb9ae97da1b6"
        },
        "effectiveDateTime": "2025-10-17T10:24:23.997577Z",
        "interpretation": [
          {
            "coding": [
              {
                "system": "http://terminology.hl7.org/CodeSystem/v3-ObservationInterpretation",
                "code": "A",
                "display": "Abnormal"
              }
            ]
          }
        ],
        "note": [
          {
            "text": "Definition: https://loinc.org/111378-6/"
          }
        ]
      },
      "request": {
        "method": "POST",
        "url": "Observation"
      }
    },
    {
      "fullUrl": "urn:uuid:20adef16-b8cb-4167-83bc-c9af262b4fa5",
      "resource": {
        "resourceType": "Observation",
        "id": "20adef16-b8cb-4167-83bc-c9af262b4fa5",
        "status": "final",
        "category": [
          {
            "coding": [
              {
                "system": "http://terminology.hl7.org/CodeSystem/observation-category",
                "code": "laboratory",
                "display": "Laboratory"
              }
            ],
            "text": "Laboratory"
          }
        ],
        "code": {
          "coding": [
            {
              "system": "http://loinc.org",
              "code": "55849-4",
              "display": "Cryoglob IgM moncl Ser Ql"
            }
          ],
          "text": "IgM"
        },
        "subject": {
          "reference": "Patient/7f885d99-5470-493e-818a-18ae67546439"
        },
        "encounter": {
          "reference": "Encounter/d7310eda-ab63-497b-94af-bb9ae97da1b6"
        },
        "effectiveDateTime": "2025-10-17T10:24:24.133570Z",
        "interpretation": [
          {
            "coding": [
              {
                "system": "http://terminology.hl7.org/CodeSystem/v3-ObservationInterpretation",
                "code": "H",
                "display": "High"
              }
            ]
          }
        ],
        "note": [
          {
            "text": "Definition: https://loinc.org/55849-4/"
          }
        ]
      },
      "request": {
        "method": "POST",
        "url": "Observation"
      }
    },
    {
      "fullUrl": "urn:uuid:17875748-db31-4542-be66-0a81855ed43d",
      "resource": {
        "resourceType": "Observation",
        "id": "17875748-db31-4542-be66-0a81855ed43d",
        "status": "final",
        "category": [
          {
            "coding": [
              {
                "system": "http://terminology.hl7.org/CodeSystem/observation-category",
                "code": "exam",
                "display": "Exam"
              }
            ],
            "text": "Exam"
          }
        ],
        "code": {
          "coding": [
            {
              "system": "http://snomed.info/sct",
              "code": "84229001",
              "display": "Fatigue"
            }
          ],
          "text": "Fatigue"
        },
        "subject": {
          "reference": "Patient/7f885d99-5470-493e-818a-18ae67546439"
        },
        "encounter": {
          "reference": "Encounter/d7310eda-ab63-497b-94af-bb9ae97da1b6"
        },
        "effectivePeriod": {
          "start": "2025-10-17T10:24:25.808477Z"
        },
        "valueBoolean": true,
        "note": [
          {
            "text": "Definition: https://snomed.info/id/84229001"
          }
        ]
      },
      "request": {
        "method": "POST",
        "url": "Observation"
      }
    },
    {
      "fullUrl": "urn:uuid:a123f070-6eb8-4d64-b5a2-d03d2189dabb",
      "resource": {
        "resourceType": "Observation",
        "id": "a123f070-6eb8-4d64-b5a2-d03d2189dabb",
        "status": "final",
        "category": [
          {
            "coding": [
              {
                "system": "http://terminology.hl7.org/CodeSystem/observation-category",
                "code": "exam",
                "display": "Exam"
              }
            ],
            "text": "Exam"
          }
        ],
        "code": {
          "coding": [
            {
              "system": "http://snomed.info/sct",
              "code": "90446007",
              "display": "Pruritus ani"
            }
          ],
          "text": "Pruritus"
        },
        "subject": {
          "reference": "Patient/7f885d99-5470-493e-818a-18ae67546439"
        },
        "encounter": {
          "reference": "Encounter/d7310eda-ab63-497b-94af-bb9ae97da1b6"
        },
        "effectivePeriod": {
          "start": "2025-10-17T10:24:27.447108Z"
        },
        "valueBoolean": true,
        "note": [
          {
            "text": "Definition: https://snomed.info/id/90446007"
          }
        ]
      },
      "request": {
        "method": "POST",
        "url": "Observation"
      }
    },
    {
      "fullUrl": "urn:uuid:721e3611-1ef8-438d-a8d9-df6b6a24818f",
      "resource": {
        "resourceType": "Observation",
        "id": "721e3611-1ef8-438d-a8d9-df6b6a24818f",
        "status": "final",
        "category": [
          {
            "coding": [
              {
                "system": "http://terminology.hl7.org/CodeSystem/observation-category",
                "code": "vital-signs",
                "display": "Vital Signs"
              }
            ],
            "text": "Vital Signs"
          }
        ],
        "code": {
          "coding": [
            {
              "system": "http://loinc.org",
              "code": "97057-4",
              "display": "Body mass index"
            }
          ],
          "text": "Body Mass Index"
        },
        "subject": {
          "reference": "Patient/7f885d99-5470-493e-818a-18ae67546439"
        },
        "encounter": {
          "reference": "Encounter/d7310eda-ab63-497b-94af-bb9ae97da1b6"
        },
        "effectiveDateTime": "2025-10-17T10:24:27.590284Z",
        "valueQuantity": {
          "value": 24.0,
          "unit": "kg/m²",
          "system": "http://unitsofmeasure.org",
          "code": "kg/m²"
        },
        "interpretation": [
          {
            "coding": [
              {
                "system": "http://terminology.hl7.org/CodeSystem/v3-ObservationInterpretation",
                "code": "N",
                "display": "Normal"
              }
            ],
            "text": "Normal"
          }
        ]
      },
      "request": {
        "method": "POST",
        "url": "Observation"
      }
    },
    {
      "fullUrl": "urn:uuid:1a46255b-6fdf-4256-a2c7-29b18e0b77f0",
      "resource": {
        "resourceType": "List",
        "id": "1a46255b-6fdf-4256-a2c7-29b18e0b77f0",
        "contained": [
          {
            "resourceType": "FamilyMemberHistory",
            "id": "fmh-1",
            "status": "completed",
            "patient": {
              "reference": "Patient/7f885d99-5470-493e-818a-18ae67546439"
            },
            "relationship": {
              "coding": [
                {
                  "system": "http://snomed.info/sct",
                  "code": "72705000",
                  "display": "Mother"
                }
              ]
            },
            "deceasedBoolean": false,
            "condition": [
              {
                "code": {
                  "coding": [
                    {
                      "system": "http://snomed.info/sct",
                      "code": "82119001",
                      "display": "Thyroiditis"
                    }
                  ]
                }
              }
            ]
          }
        ],
        "status": "current",
        "mode": "snapshot",
        "code": {
          "coding": [
            {
              "system": "http://loinc.org",
              "code": "8670-2",
              "display": "History of family member diseases"
            }
          ]
        },
        "subject": [
          {
            "reference": "Patient/7f885d99-5470-493e-818a-18ae67546439"
          }
        ],
        "entry": [
          {
            "item": {
              "reference": "#fmh-1"
            }
          }
        ]
      },
      "request": {
        "method": "POST",
        "url": "FamilyMemberHistory"
      }
    }
  ]
}