{
  "resourceType": "Bundle",
  "type": "transaction",
  "entry": [
    {
      "fullUrl": "urn:uuid:5ff8d02f-aac1-42c7-a12b-d08577315ea8",
      "resource": {
        "resourceType": "Patient",
        "id": "5ff8d02f-aac1-42c7-a12b-d08577315ea8",
        "name": [
          {
            "family": "Ford",
            "given": [
              "Patricia"
            ]
          }
        ],
        "gender": "female",
        "address": [
          {}
        ]
      },
      "request": {
        "method": "POST",
        "url": "Patient"
      }
    },
    {
      "fullUrl": "urn:uuid:306bd0f8-fde7-407b-83d1-ab4414be10c3",
      "resource": {
        "resourceType": "Encounter",
        "id": "306bd0f8-fde7-407b-83d1-ab4414be10c3",
        "identifier": [
          {
            "use": "temp",
            "value": "Encounter_Patricia Ford_20251017122415"
          }
        ],
        "status": "completed",
        "priority": {
          "coding": [
            {
              "system": "http://snomed.info/sct",
              "code": "17621005",
              "display": "Normal"
            }
          ]
        },
        "type": [
          {
            "coding": [
              {
                "system": "http://snomed.info/sct",
                "code": "11429006",
                "display": "Consultation"
              }
            ]
          }
        ],
        "subject": {
          "reference": "Patient/5ff8d02f-aac1-42c7-a12b-d08577315ea8",
          "display": "Patricia Ford"
        },
        "reason": [
          {
            "value": [
              {
                "concept": {
                  "text": "mild fatigue and pruritus for six months"
                }
              }
            ]
          }
        ]
      },
      "request": {
        "method": "POST",
        "url": "Encounter"
      }
    },
    {
      "fullUrl": "urn:uuid:010a9a2c-e848-4ce4-886b-7de9a4ea8c30",
      "resource": {
        "resourceType": "Observation",
        "id": "010a9a2c-e848-4ce4-886b-7de9a4ea8c30",
        "status": "final",
        "category": [
          {
            "coding": [
              {
                "system": "http://terminology.hl7.org/CodeSystem/observation-category",
                "code": "laboratory",
                "display": "Laboratory"
              }
            ],
            "text": "Laboratory"
          }
        ],
        "code": {
          "coding": [
            {
              "system": "http://loinc.org",
              "code": "62898-2",
              "display": "PhenX - alkaline phosphatase protocol 170101"
            }
          ],
          "text": "Alkaline Phosphatase"
        },
        "subject": {
          "reference": "Patient/5ff8d02f-aac1-42c7-a12b-d08577315ea8"
        },
        "encounter": {
          "reference": "Encounter/306bd0f8-fde7-407b-83d1-ab4414be10c3"
        },
        "effectiveDateTime": "2025-10-17T10:24:16.074415Z",
        "interpretation": [
          {
            "coding": [
              {
                "system": "http://terminology.hl7.org/CodeSystem/v3-ObservationInterpretation",
                "code": "H",
                "display": "High"
              }
            ]
          }
        ],
        "note": [
          {
            "text": "Definition: https://loinc.org/62898-2/"
          }
        ]
      },
      "request": {
        "method": "POST",
        "url": "Observation"
      }
    },
    {
      "fullUrl": "urn:uuid:546bb063-1507-405c-99fb-159e00a045d8",
      "resource": {
        "resourceType": "Observation",
        "id": "546bb063-1507-405c-99fb-159e00a045d8",
        "status": "final",
        "category": [
          {
            "coding": [
              {
                "system": "http://terminology.hl7.org/CodeSystem/observation-category",
                "code": "laboratory",
                "display": "Laboratory"
              }
            ],
            "text": "Laboratory"
          }
        ],
        "code": {
          "coding": [
            {
              "system": "http://loinc.org",
              "code": "100741-8",
              "display": "GGT Macro SerPl Ql"
            }
          ],
          "text": "GGT"
        },
        "subject": {
          "reference": "Patient/5ff8d02f-aac1-42c7-a12b-d08577315ea8"
        },
        "encounter": {
          "reference": "Encounter/306bd0f8-fde7-407b-83d1-ab4414be10c3"
        },
        "effectiveDateTime": "2025-10-17T10:24:16.281056Z",
        "interpretation": [
          {
            "coding": [
              {
                "system": "http://terminology.hl7.org/CodeSystem/v3-ObservationInterpretation",
                "code": "H",
                "display": "High"
              }
            ]
          }
        ],
        "note": [
          {
            "text": "Definition: https://loinc.org/100741-8/"
          }
        ]
      },
      "request": {
        "method": "POST",
        "url": "Observation"
      }
    },
    {
      "fullUrl": "urn:uuid:913d3192-f2d4-47d3-bccc-13a5665b16b6",
      "resource": {
        "resourceType": "Observation",
        "id": "913d3192-f2d4-47d3-bccc-13a5665b16b6",
        "status": "final",
        "category": [
          {
            "coding": [
              {
                "system": "http://terminology.hl7.org/CodeSystem/observation-category",
                "code": "laboratory",
                "display": "Laboratory"
              }
            ],
            "text": "Laboratory"
          }
        ],
        "code": {
          "coding": [
            {
              "system": "http://loinc.org",
              "code": "78442-1",
              "display": "Bilirub Indirect Prt-sCnc"
            }
          ],
          "text": "Bilirubin"
        },
        "subject": {
          "reference": "Patient/5ff8d02f-aac1-42c7-a12b-d08577315ea8"
        },
        "encounter": {
          "reference": "Encounter/306bd0f8-fde7-407b-83d1-ab4414be10c3"
        },
        "effectiveDateTime": "2025-10-17T10:24:16.484415Z",
        "interpretation": [
          {
            "coding": [
              {
                "system": "http://terminology.hl7.org/CodeSystem/v3-ObservationInterpretation",
                "code": "N",
                "display": "Normal"
              }
            ]
          }
        ],
        "note": [
          {
            "text": "Definition: https://loinc.org/78442-1/"
          }
        ]
      },
      "request": {
        "method": "POST",
        "url": "Observation"
      }
    },
    {
      "fullUrl": "urn:uuid:25f9eb11-d52c-4a27-97d4-e031f6389630",
      "resource": {
        "resourceType": "Observation",
        "id": "25f9eb11-d52c-4a27-97d4-e031f6389630",
        "status": "final",
        "category": [
          {
            "coding": [
              {
                "system": "http://terminology.hl7.org/CodeSystem/observation-category",
                "code": "laboratory",
                "display": "Laboratory"
              }
            ],
            "text": "Laboratory"
          }
        ],
        "code": {
          "coding": [
            {
              "system": "http://loinc.org",
              "code": "111022-0",
              "display": "Mitochondria M2 Ab Msmt Ser"
            }
          ],
          "text": "AMA (Anti-Mitochondrial Antibody)"
        },
        "subject": {
          "reference": "Patient/5ff8d02f-aac1-42c7-a12b-d08577315ea8"
        },
        "encounter": {
          "reference": "Encounter/306bd0f8-fde7-407b-83d1-ab4414be10c3"
        },
        "effectiveDateTime": "2025-10-17T10:24:16.688851Z",
        "interpretation": [
          {
            "coding": [
              {
                "system": "http://terminology.hl7.org/CodeSystem/v3-ObservationInterpretation",
                "code": "H",
                "display": "High"
              }
            ]
          }
        ],
        "note": [
          {
            "text": "Definition: https://loinc.org/111022-0/"
          }
        ]
      },
      "request": {
        "method": "POST",
        "url": "Observation"
      }
    },
    {
      "fullUrl": "urn:uuid:954f9273-3ad1-456c-b3b2-256a42aa3973",
      "resource": {
        "resourceType": "Observation",
        "id": "954f9273-3ad1-456c-b3b2-256a42aa3973",
        "status": "final",
        "category": [
          {
            "coding": [
              {
                "system": "http://terminology.hl7.org/CodeSystem/observation-category",
                "code": "exam",
                "display": "Exam"
              }
            ],
            "text": "Exam"
          }
        ],
        "code": {
          "coding": [
            {
              "system": "http://snomed.info/sct",
              "code": "84229001",
              "display": "Fatigue"
            }
          ],
          "text": "Fatigue"
        },
        "subject": {
          "reference": "Patient/5ff8d02f-aac1-42c7-a12b-d08577315ea8"
        },
        "encounter": {
          "reference": "Encounter/306bd0f8-fde7-407b-83d1-ab4414be10c3"
        },
        "effectivePeriod": {
          "start": "2025-10-17T10:24:18.231045Z"
        },
        "valueBoolean": true,
        "note": [
          {
            "text": "Definition: https://snomed.info/id/84229001"
          }
        ]
      },
      "request": {
        "method": "POST",
        "url": "Observation"
      }
    },
    {
      "fullUrl": "urn:uuid:ba18a114-fe8c-4ec5-a9cc-435f70d12ca4",
      "resource": {
        "resourceType": "Observation",
        "id": "ba18a114-fe8c-4ec5-a9cc-435f70d12ca4",
        "status": "final",
        "category": [
          {
            "coding": [
              {
                "system": "http://terminology.hl7.org/CodeSystem/observation-category",
                "code": "exam",
                "display": "Exam"
              }
            ],
            "text": "Exam"
          }
        ],
        "code": {
          "coding": [
            {
              "system": "http://snomed.info/sct",
              "code": "90446007",
              "display": "Pruritus ani"
            }
          ],
          "text": "Pruritus"
        },
        "subject": {
          "reference": "Patient/5ff8d02f-aac1-42c7-a12b-d08577315ea8"
        },
        "encounter": {
          "reference": "Encounter/306bd0f8-fde7-407b-83d1-ab4414be10c3"
        },
        "effectivePeriod": {
          "start": "2025-10-17T10:24:19.868113Z"
        },
        "valueBoolean": true,
        "note": [
          {
            "text": "Definition: https://snomed.info/id/90446007"
          }
        ]
      },
      "request": {
        "method": "POST",
        "url": "Observation"
      }
    }
  ]
}