{
  "resourceType": "Bundle",
  "type": "transaction",
  "entry": [
    {
      "fullUrl": "urn:uuid:9bdbefef-ea62-4b43-84fa-1e2ccc45f4af",
      "resource": {
        "resourceType": "Patient",
        "id": "9bdbefef-ea62-4b43-84fa-1e2ccc45f4af",
        "name": [
          {
            "family": "Wilson",
            "given": [
              "Emily"
            ]
          }
        ],
        "gender": "female",
        "birthDate": "1987-01-01",
        "address": [
          {}
        ]
      },
      "request": {
        "method": "POST",
        "url": "Patient"
      }
    },
    {
      "fullUrl": "urn:uuid:7f02e5b5-53a3-4591-861b-fd27cc1897b4",
      "resource": {
        "resourceType": "Encounter",
        "id": "7f02e5b5-53a3-4591-861b-fd27cc1897b4",
        "identifier": [
          {
            "use": "temp",
            "value": "Encounter_Emily Wilson_20251021094154"
          }
        ],
        "status": "completed",
        "priority": {
          "coding": [
            {
              "system": "http://snomed.info/sct",
              "code": "17621005",
              "display": "Normal"
            }
          ]
        },
        "type": [
          {
            "coding": [
              {
                "system": "http://snomed.info/sct",
                "code": "11429006",
                "display": "Consultation"
              }
            ]
          }
        ],
        "subject": {
          "reference": "Patient/9bdbefef-ea62-4b43-84fa-1e2ccc45f4af",
          "display": "Emily Wilson"
        },
        "reason": [
          {
            "value": [
              {
                "concept": {
                  "text": "complaints of intermittent itching"
                }
              }
            ]
          }
        ]
      },
      "request": {
        "method": "POST",
        "url": "Encounter"
      }
    },
    {
      "fullUrl": "urn:uuid:5832f08b-1794-45ce-a64c-e16f6e28267d",
      "resource": {
        "resourceType": "Observation",
        "id": "5832f08b-1794-45ce-a64c-e16f6e28267d",
        "status": "final",
        "category": [
          {
            "coding": [
              {
                "system": "http://terminology.hl7.org/CodeSystem/observation-category",
                "code": "laboratory",
                "display": "Laboratory"
              }
            ],
            "text": "Laboratory"
          }
        ],
        "code": {
          "coding": [
            {
              "system": "http://loinc.org",
              "code": "62898-2",
              "display": "PhenX - alkaline phosphatase protocol 170101"
            }
          ],
          "text": "Alkaline Phosphatase"
        },
        "subject": {
          "reference": "Patient/9bdbefef-ea62-4b43-84fa-1e2ccc45f4af"
        },
        "encounter": {
          "reference": "Encounter/7f02e5b5-53a3-4591-861b-fd27cc1897b4"
        },
        "effectiveDateTime": "2025-10-16",
        "valueQuantity": {
          "value": 140.0,
          "unit": "U/L",
          "system": "http://unitsofmeasure.org",
          "code": "U/L"
        },
        "interpretation": [
          {
            "coding": [
              {
                "system": "http://terminology.hl7.org/CodeSystem/v3-ObservationInterpretation",
                "code": "A",
                "display": "Abnormal"
              }
            ]
          }
        ],
        "note": [
          {
            "text": "Definition: https://loinc.org/62898-2/"
          }
        ]
      },
      "request": {
        "method": "POST",
        "url": "Observation"
      }
    },
    {
      "fullUrl": "urn:uuid:f191a771-305c-4a26-8ed3-c2dae869f181",
      "resource": {
        "resourceType": "Observation",
        "id": "f191a771-305c-4a26-8ed3-c2dae869f181",
        "status": "final",
        "category": [
          {
            "coding": [
              {
                "system": "http://terminology.hl7.org/CodeSystem/observation-category",
                "code": "laboratory",
                "display": "Laboratory"
              }
            ],
            "text": "Laboratory"
          }
        ],
        "code": {
          "coding": [
            {
              "system": "http://loinc.org",
              "code": "93005-7",
              "display": "Rapid alt hand move - L+R mean Score"
            }
          ],
          "text": "ALT"
        },
        "subject": {
          "reference": "Patient/9bdbefef-ea62-4b43-84fa-1e2ccc45f4af"
        },
        "encounter": {
          "reference": "Encounter/7f02e5b5-53a3-4591-861b-fd27cc1897b4"
        },
        "effectiveDateTime": "2025-10-16",
        "interpretation": [
          {
            "coding": [
              {
                "system": "http://terminology.hl7.org/CodeSystem/v3-ObservationInterpretation",
                "code": "N",
                "display": "Normal"
              }
            ]
          }
        ],
        "note": [
          {
            "text": "Definition: https://loinc.org/93005-7/"
          }
        ]
      },
      "request": {
        "method": "POST",
        "url": "Observation"
      }
    },
    {
      "fullUrl": "urn:uuid:d3db20c8-1bd4-4217-9ac3-10a06b5351fc",
      "resource": {
        "resourceType": "Observation",
        "id": "d3db20c8-1bd4-4217-9ac3-10a06b5351fc",
        "status": "final",
        "category": [
          {
            "coding": [
              {
                "system": "http://terminology.hl7.org/CodeSystem/observation-category",
                "code": "laboratory",
                "display": "Laboratory"
              }
            ],
            "text": "Laboratory"
          }
        ],
        "code": {
          "coding": [
            {
              "system": "http://loinc.org",
              "code": "1917-4",
              "display": "AST Amn-cCnc"
            }
          ],
          "text": "AST"
        },
        "subject": {
          "reference": "Patient/9bdbefef-ea62-4b43-84fa-1e2ccc45f4af"
        },
        "encounter": {
          "reference": "Encounter/7f02e5b5-53a3-4591-861b-fd27cc1897b4"
        },
        "effectiveDateTime": "2025-10-16",
        "interpretation": [
          {
            "coding": [
              {
                "system": "http://terminology.hl7.org/CodeSystem/v3-ObservationInterpretation",
                "code": "N",
                "display": "Normal"
              }
            ]
          }
        ],
        "note": [
          {
            "text": "Definition: https://loinc.org/1917-4/"
          }
        ]
      },
      "request": {
        "method": "POST",
        "url": "Observation"
      }
    },
    {
      "fullUrl": "urn:uuid:1ebdd691-fd75-465a-8390-52ab050da7c1",
      "resource": {
        "resourceType": "Observation",
        "id": "1ebdd691-fd75-465a-8390-52ab050da7c1",
        "status": "final",
        "category": [
          {
            "coding": [
              {
                "system": "http://terminology.hl7.org/CodeSystem/observation-category",
                "code": "laboratory",
                "display": "Laboratory"
              }
            ],
            "text": "Laboratory"
          }
        ],
        "code": {
          "coding": [
            {
              "system": "http://loinc.org",
              "code": "34543-9",
              "display": "Bilirubin direct & total panel"
            }
          ],
          "text": "Total Bilirubin"
        },
        "subject": {
          "reference": "Patient/9bdbefef-ea62-4b43-84fa-1e2ccc45f4af"
        },
        "encounter": {
          "reference": "Encounter/7f02e5b5-53a3-4591-861b-fd27cc1897b4"
        },
        "effectiveDateTime": "2025-10-16",
        "valueQuantity": {
          "value": 0.8,
          "unit": "mg/dL",
          "system": "http://unitsofmeasure.org",
          "code": "mg/dL"
        },
        "interpretation": [
          {
            "coding": [
              {
                "system": "http://terminology.hl7.org/CodeSystem/v3-ObservationInterpretation",
                "code": "N",
                "display": "Normal"
              }
            ]
          }
        ],
        "note": [
          {
            "text": "Definition: https://loinc.org/34543-9/"
          }
        ]
      },
      "request": {
        "method": "POST",
        "url": "Observation"
      }
    },
    {
      "fullUrl": "urn:uuid:c750b9fb-0467-4d60-b336-818f3e7447b3",
      "resource": {
        "resourceType": "Observation",
        "id": "c750b9fb-0467-4d60-b336-818f3e7447b3",
        "status": "final",
        "category": [
          {
            "coding": [
              {
                "system": "http://terminology.hl7.org/CodeSystem/observation-category",
                "code": "laboratory",
                "display": "Laboratory"
              }
            ],
            "text": "Laboratory"
          }
        ],
        "code": {
          "coding": [
            {
              "system": "http://loinc.org",
              "code": "58292-4",
              "display": "Hgh blood cholesterol"
            }
          ],
          "text": "Cholesterol"
        },
        "subject": {
          "reference": "Patient/9bdbefef-ea62-4b43-84fa-1e2ccc45f4af"
        },
        "encounter": {
          "reference": "Encounter/7f02e5b5-53a3-4591-861b-fd27cc1897b4"
        },
        "effectiveDateTime": "2025-10-16",
        "valueQuantity": {
          "value": 220.0,
          "unit": "mg/dL",
          "system": "http://unitsofmeasure.org",
          "code": "mg/dL"
        },
        "interpretation": [
          {
            "coding": [
              {
                "system": "http://terminology.hl7.org/CodeSystem/v3-ObservationInterpretation",
                "code": "A",
                "display": "Abnormal"
              }
            ]
          }
        ],
        "note": [
          {
            "text": "Definition: https://loinc.org/58292-4/"
          }
        ]
      },
      "request": {
        "method": "POST",
        "url": "Observation"
      }
    },
    {
      "fullUrl": "urn:uuid:4f99eaf9-fa36-4f6f-80b1-9e1356b806cf",
      "resource": {
        "resourceType": "Observation",
        "id": "4f99eaf9-fa36-4f6f-80b1-9e1356b806cf",
        "status": "final",
        "category": [
          {
            "coding": [
              {
                "system": "http://terminology.hl7.org/CodeSystem/observation-category",
                "code": "exam",
                "display": "Exam"
              }
            ],
            "text": "Exam"
          }
        ],
        "code": {
          "coding": [
            {
              "system": "http://snomed.info/sct",
              "code": "418290006",
              "display": "Itching"
            }
          ],
          "text": "Itching"
        },
        "subject": {
          "reference": "Patient/9bdbefef-ea62-4b43-84fa-1e2ccc45f4af"
        },
        "encounter": {
          "reference": "Encounter/7f02e5b5-53a3-4591-861b-fd27cc1897b4"
        },
        "effectivePeriod": {
          "start": "2025-10-16"
        },
        "valueBoolean": true,
        "note": [
          {
            "text": "Definition: https://snomed.info/id/418290006"
          }
        ]
      },
      "request": {
        "method": "POST",
        "url": "Observation"
      }
    },
    {
      "fullUrl": "urn:uuid:2bbdbab1-9a51-47a6-97ee-7d4923856239",
      "resource": {
        "resourceType": "Observation",
        "id": "2bbdbab1-9a51-47a6-97ee-7d4923856239",
        "status": "final",
        "category": [
          {
            "coding": [
              {
                "system": "http://terminology.hl7.org/CodeSystem/observation-category",
                "code": "exam",
                "display": "Exam"
              }
            ],
            "text": "Exam"
          }
        ],
        "code": {
          "coding": [
            {
              "system": "http://snomed.info/sct",
              "code": "84229001",
              "display": "Fatigue"
            }
          ],
          "text": "Fatigue"
        },
        "subject": {
          "reference": "Patient/9bdbefef-ea62-4b43-84fa-1e2ccc45f4af"
        },
        "encounter": {
          "reference": "Encounter/7f02e5b5-53a3-4591-861b-fd27cc1897b4"
        },
        "effectivePeriod": {
          "start": "2025-10-16"
        },
        "valueBoolean": true,
        "note": [
          {
            "text": "Definition: https://snomed.info/id/84229001"
          }
        ]
      },
      "request": {
        "method": "POST",
        "url": "Observation"
      }
    },
    {
      "fullUrl": "urn:uuid:d7b81265-116d-4b5a-87b9-2a2ff6eaff4a",
      "resource": {
        "resourceType": "Observation",
        "id": "d7b81265-116d-4b5a-87b9-2a2ff6eaff4a",
        "status": "final",
        "category": [
          {
            "coding": [
              {
                "system": "http://terminology.hl7.org/CodeSystem/observation-category",
                "code": "vital-signs",
                "display": "Vital Signs"
              }
            ],
            "text": "Vital Signs"
          }
        ],
        "code": {
          "coding": [
            {
              "system": "http://loinc.org",
              "code": "18684-1",
              "display": "Blood pressure"
            }
          ],
          "text": "Blood Pressure"
        },
        "subject": {
          "reference": "Patient/9bdbefef-ea62-4b43-84fa-1e2ccc45f4af"
        },
        "encounter": {
          "reference": "Encounter/7f02e5b5-53a3-4591-861b-fd27cc1897b4"
        },
        "effectiveDateTime": "2025-10-16",
        "valueQuantity": {
          "value": 122.0,
          "unit": "mmHg",
          "system": "http://unitsofmeasure.org",
          "code": "mmHg"
        },
        "interpretation": [
          {
            "coding": [
              {
                "system": "http://terminology.hl7.org/CodeSystem/v3-ObservationInterpretation",
                "code": "N",
                "display": "Normal"
              }
            ],
            "text": "Normal"
          }
        ]
      },
      "request": {
        "method": "POST",
        "url": "Observation"
      }
    },
    {
      "fullUrl": "urn:uuid:5c39f1c6-478d-4f5f-8496-f4c27a2dea7b",
      "resource": {
        "resourceType": "Observation",
        "id": "5c39f1c6-478d-4f5f-8496-f4c27a2dea7b",
        "status": "final",
        "category": [
          {
            "coding": [
              {
                "system": "http://terminology.hl7.org/CodeSystem/observation-category",
                "code": "vital-signs",
                "display": "Vital Signs"
              }
            ],
            "text": "Vital Signs"
          }
        ],
        "code": {
          "coding": [
            {
              "system": "http://loinc.org",
              "code": "62733-1",
              "display": "PhenX - respiratory - pulse oximetry - rest protocol 091101"
            }
          ],
          "text": "Pulse"
        },
        "subject": {
          "reference": "Patient/9bdbefef-ea62-4b43-84fa-1e2ccc45f4af"
        },
        "encounter": {
          "reference": "Encounter/7f02e5b5-53a3-4591-861b-fd27cc1897b4"
        },
        "effectiveDateTime": "2025-10-16",
        "valueQuantity": {
          "value": 74.0,
          "unit": "bpm",
          "system": "http://unitsofmeasure.org",
          "code": "bpm"
        },
        "interpretation": [
          {
            "coding": [
              {
                "system": "http://terminology.hl7.org/CodeSystem/v3-ObservationInterpretation",
                "code": "N",
                "display": "Normal"
              }
            ],
            "text": "Normal"
          }
        ]
      },
      "request": {
        "method": "POST",
        "url": "Observation"
      }
    },
    {
      "fullUrl": "urn:uuid:beeccb4a-ee24-409d-8bdd-e3996a2f4391",
      "resource": {
        "resourceType": "Observation",
        "id": "beeccb4a-ee24-409d-8bdd-e3996a2f4391",
        "status": "final",
        "category": [
          {
            "coding": [
              {
                "system": "http://terminology.hl7.org/CodeSystem/observation-category",
                "code": "vital-signs",
                "display": "Vital Signs"
              }
            ],
            "text": "Vital Signs"
          }
        ],
        "code": {
          "coding": [
            {
              "system": "http://loinc.org",
              "code": "107102-6",
              "display": "BMI formula"
            }
          ],
          "text": "BMI"
        },
        "subject": {
          "reference": "Patient/9bdbefef-ea62-4b43-84fa-1e2ccc45f4af"
        },
        "encounter": {
          "reference": "Encounter/7f02e5b5-53a3-4591-861b-fd27cc1897b4"
        },
        "effectiveDateTime": "2025-10-16",
        "valueQuantity": {
          "value": 25.1,
          "unit": "kg/m²",
          "system": "http://unitsofmeasure.org",
          "code": "kg/m²"
        },
        "interpretation": [
          {
            "coding": [
              {
                "system": "http://terminology.hl7.org/CodeSystem/v3-ObservationInterpretation",
                "code": "A",
                "display": "Abnormal"
              }
            ],
            "text": "Abnormal"
          }
        ]
      },
      "request": {
        "method": "POST",
        "url": "Observation"
      }
    },
    {
      "fullUrl": "urn:uuid:b2f57e8d-3a18-421f-81f4-5ba608f992f5",
      "resource": {
        "resourceType": "MedicationStatement",
        "id": "b2f57e8d-3a18-421f-81f4-5ba608f992f5",
        "status": "recorded",
        "medication": {
          "concept": {
            "coding": [
              {
                "system": "http://snomed.info/sct",
                "code": "412250002",
                "display": "Multivitamin agent"
              }
            ],
            "text": "Multivitamin"
          }
        },
        "subject": {
          "reference": "Patient/9bdbefef-ea62-4b43-84fa-1e2ccc45f4af"
        },
        "encounter": {
          "reference": "Encounter/7f02e5b5-53a3-4591-861b-fd27cc1897b4"
        },
        "effectiveDateTime": "2025-10-16",
        "informationSource": [
          {
            "reference": "Patient/9bdbefef-ea62-4b43-84fa-1e2ccc45f4af"
          }
        ],
        "dosage": [
          {
            "text": "daily",
            "timing": {
              "repeat": {
                "frequency": 1,
                "period": 1.0,
                "periodUnit": "d"
              }
            }
          }
        ],
        "adherence": {
          "code": {
            "coding": [
              {
                "system": "http://hl7.org/fhir/CodeSystem/medication-statement-adherence",
                "code": "taking",
                "display": "Taking"
              }
            ]
          }
        }
      },
      "request": {
        "method": "POST",
        "url": "MedicationStatement"
      }
    },
    {
      "fullUrl": "urn:uuid:b16761ab-2ebe-4cb1-84fd-00eb76db1d48",
      "resource": {
        "resourceType": "MedicationStatement",
        "id": "b16761ab-2ebe-4cb1-84fd-00eb76db1d48",
        "status": "recorded",
        "medication": {
          "concept": {
            "coding": [
              {
                "system": "http://snomed.info/sct",
                "code": "218498003",
                "display": "Adverse reaction to antihistamines"
              }
            ],
            "text": "Antihistamines"
          }
        },
        "subject": {
          "reference": "Patient/9bdbefef-ea62-4b43-84fa-1e2ccc45f4af"
        },
        "encounter": {
          "reference": "Encounter/7f02e5b5-53a3-4591-861b-fd27cc1897b4"
        },
        "effectiveDateTime": "2025-10-16",
        "informationSource": [
          {
            "reference": "Patient/9bdbefef-ea62-4b43-84fa-1e2ccc45f4af"
          }
        ],
        "note": [
          {
            "text": "somewhat relieving"
          }
        ],
        "dosage": [
          {
            "text": "occasional"
          }
        ],
        "adherence": {
          "code": {
            "coding": [
              {
                "system": "http://hl7.org/fhir/CodeSystem/medication-statement-adherence",
                "code": "taking",
                "display": "Taking"
              }
            ]
          }
        }
      },
      "request": {
        "method": "POST",
        "url": "MedicationStatement"
      }
    },
    {
      "fullUrl": "urn:uuid:a8c7af3d-6a84-4708-93c6-576eb2ab0146",
      "resource": {
        "resourceType": "Encounter",
        "id": "a8c7af3d-6a84-4708-93c6-576eb2ab0146",
        "identifier": [
          {
            "use": "temp",
            "value": "Encounter_Emily Wilson_20251021094204"
          }
        ],
        "status": "completed",
        "priority": {
          "coding": [
            {
              "system": "http://snomed.info/sct",
              "code": "17621005",
              "display": "Normal"
            }
          ]
        },
        "type": [
          {
            "coding": [
              {
                "system": "http://snomed.info/sct",
                "code": "11429006",
                "display": "Consultation"
              }
            ]
          }
        ],
        "subject": {
          "reference": "Patient/9bdbefef-ea62-4b43-84fa-1e2ccc45f4af",
          "display": "Emily Wilson"
        }
      },
      "request": {
        "method": "POST",
        "url": "Encounter"
      }
    },
    {
      "fullUrl": "urn:uuid:e8c7b418-b9a3-4d07-9361-b429a1bd9704",
      "resource": {
        "resourceType": "Observation",
        "id": "e8c7b418-b9a3-4d07-9361-b429a1bd9704",
        "status": "final",
        "category": [
          {
            "coding": [
              {
                "system": "http://terminology.hl7.org/CodeSystem/observation-category",
                "code": "laboratory",
                "display": "Laboratory"
              }
            ],
            "text": "Laboratory"
          }
        ],
        "code": {
          "coding": [
            {
              "system": "http://loinc.org",
              "code": "32219-8",
              "display": "Soluble liver Ab Ser IA-aCnc"
            }
          ],
          "text": "Liver Enzyme"
        },
        "subject": {
          "reference": "Patient/9bdbefef-ea62-4b43-84fa-1e2ccc45f4af"
        },
        "encounter": {
          "reference": "Encounter/a8c7af3d-6a84-4708-93c6-576eb2ab0146"
        },
        "effectiveDateTime": "2025-04-16",
        "interpretation": [
          {
            "coding": [
              {
                "system": "http://terminology.hl7.org/CodeSystem/v3-ObservationInterpretation",
                "code": "A",
                "display": "Abnormal"
              }
            ]
          }
        ],
        "note": [
          {
            "text": "Definition: https://loinc.org/32219-8/"
          }
        ]
      },
      "request": {
        "method": "POST",
        "url": "Observation"
      }
    },
    {
      "fullUrl": "urn:uuid:3ed5ab80-b82b-4b90-bedc-98067a3e2e3c",
      "resource": {
        "resourceType": "List",
        "id": "3ed5ab80-b82b-4b90-bedc-98067a3e2e3c",
        "contained": [
          {
            "resourceType": "FamilyMemberHistory",
            "id": "fmh-3",
            "status": "completed",
            "patient": {
              "reference": "Patient/9bdbefef-ea62-4b43-84fa-1e2ccc45f4af"
            },
            "relationship": {
              "coding": [
                {
                  "system": "http://snomed.info/sct",
                  "code": "66839005",
                  "display": "Father"
                }
              ]
            },
            "deceasedBoolean": false,
            "condition": []
          }
        ],
        "status": "current",
        "mode": "snapshot",
        "code": {
          "coding": [
            {
              "system": "http://loinc.org",
              "code": "8670-2",
              "display": "History of family member diseases"
            }
          ]
        },
        "subject": [
          {
            "reference": "Patient/9bdbefef-ea62-4b43-84fa-1e2ccc45f4af"
          }
        ],
        "note": [
          {
            "text": "Both parents are alive and relatively healthy, with no known liver diseases in the family."
          }
        ],
        "entry": [
          {
            "item": {
              "reference": "#fmh-3"
            }
          }
        ]
      },
      "request": {
        "method": "POST",
        "url": "FamilyMemberHistory"
      }
    }
  ]
}