{
  "resourceType": "Bundle",
  "type": "transaction",
  "entry": [
    {
      "fullUrl": "urn:uuid:a1df1c65-6971-4288-8b24-60bf0bfa866b",
      "resource": {
        "resourceType": "Patient",
        "id": "a1df1c65-6971-4288-8b24-60bf0bfa866b",
        "name": [
          {
            "family": "Ivanov",
            "given": [
              "Viktor"
            ]
          }
        ],
        "gender": "male",
        "address": [
          {}
        ]
      },
      "request": {
        "method": "POST",
        "url": "Patient"
      }
    },
    {
      "fullUrl": "urn:uuid:b480ef32-bf09-4bc1-b0d7-a1b75b2529dd",
      "resource": {
        "resourceType": "Encounter",
        "id": "b480ef32-bf09-4bc1-b0d7-a1b75b2529dd",
        "identifier": [
          {
            "use": "temp",
            "value": "Encounter_Viktor Ivanov_20251017183015"
          }
        ],
        "status": "completed",
        "priority": {
          "coding": [
            {
              "system": "http://snomed.info/sct",
              "code": "17621005",
              "display": "Normal"
            }
          ]
        },
        "type": [
          {
            "coding": [
              {
                "system": "http://snomed.info/sct",
                "code": "11429006",
                "display": "Consultation"
              }
            ]
          }
        ],
        "subject": {
          "reference": "Patient/a1df1c65-6971-4288-8b24-60bf0bfa866b",
          "display": "Viktor Ivanov"
        },
        "reason": [
          {
            "value": [
              {
                "concept": {
                  "text": "increasing fatigue and itchy skin over the past 8 months"
                }
              }
            ]
          }
        ]
      },
      "request": {
        "method": "POST",
        "url": "Encounter"
      }
    },
    {
      "fullUrl": "urn:uuid:0fef9f26-470a-4616-9158-77e3b341ddaa",
      "resource": {
        "resourceType": "Observation",
        "id": "0fef9f26-470a-4616-9158-77e3b341ddaa",
        "status": "final",
        "category": [
          {
            "coding": [
              {
                "system": "http://terminology.hl7.org/CodeSystem/observation-category",
                "code": "laboratory",
                "display": "Laboratory"
              }
            ],
            "text": "Laboratory"
          }
        ],
        "code": {
          "coding": [
            {
              "system": "http://loinc.org",
              "code": "78442-1",
              "display": "Bilirub Indirect Prt-sCnc"
            }
          ],
          "text": "Bilirubin"
        },
        "subject": {
          "reference": "Patient/a1df1c65-6971-4288-8b24-60bf0bfa866b"
        },
        "encounter": {
          "reference": "Encounter/b480ef32-bf09-4bc1-b0d7-a1b75b2529dd"
        },
        "effectiveDateTime": "2025-10-16",
        "interpretation": [
          {
            "coding": [
              {
                "system": "http://terminology.hl7.org/CodeSystem/v3-ObservationInterpretation",
                "code": "H",
                "display": "High"
              }
            ]
          }
        ],
        "note": [
          {
            "text": "Definition: https://loinc.org/78442-1/"
          }
        ]
      },
      "request": {
        "method": "POST",
        "url": "Observation"
      }
    },
    {
      "fullUrl": "urn:uuid:fa1fb3b0-d71a-48f3-9389-61fb1c98bf0e",
      "resource": {
        "resourceType": "Observation",
        "id": "fa1fb3b0-d71a-48f3-9389-61fb1c98bf0e",
        "status": "final",
        "category": [
          {
            "coding": [
              {
                "system": "http://terminology.hl7.org/CodeSystem/observation-category",
                "code": "laboratory",
                "display": "Laboratory"
              }
            ],
            "text": "Laboratory"
          }
        ],
        "code": {
          "coding": [
            {
              "system": "http://loinc.org",
              "code": "62898-2",
              "display": "PhenX - alkaline phosphatase protocol 170101"
            }
          ],
          "text": "Alkaline Phosphatase"
        },
        "subject": {
          "reference": "Patient/a1df1c65-6971-4288-8b24-60bf0bfa866b"
        },
        "encounter": {
          "reference": "Encounter/b480ef32-bf09-4bc1-b0d7-a1b75b2529dd"
        },
        "effectiveDateTime": "2025-10-16",
        "interpretation": [
          {
            "coding": [
              {
                "system": "http://terminology.hl7.org/CodeSystem/v3-ObservationInterpretation",
                "code": "H",
                "display": "High"
              }
            ]
          }
        ],
        "note": [
          {
            "text": "Definition: https://loinc.org/62898-2/"
          }
        ]
      },
      "request": {
        "method": "POST",
        "url": "Observation"
      }
    },
    {
      "fullUrl": "urn:uuid:890cd7c7-5ba0-4632-8dea-bc62868d9745",
      "resource": {
        "resourceType": "Observation",
        "id": "890cd7c7-5ba0-4632-8dea-bc62868d9745",
        "status": "final",
        "category": [
          {
            "coding": [
              {
                "system": "http://terminology.hl7.org/CodeSystem/observation-category",
                "code": "laboratory",
                "display": "Laboratory"
              }
            ],
            "text": "Laboratory"
          }
        ],
        "code": {
          "coding": [
            {
              "system": "http://loinc.org",
              "code": "100741-8",
              "display": "GGT Macro SerPl Ql"
            }
          ],
          "text": "GGT"
        },
        "subject": {
          "reference": "Patient/a1df1c65-6971-4288-8b24-60bf0bfa866b"
        },
        "encounter": {
          "reference": "Encounter/b480ef32-bf09-4bc1-b0d7-a1b75b2529dd"
        },
        "effectiveDateTime": "2025-10-16",
        "interpretation": [
          {
            "coding": [
              {
                "system": "http://terminology.hl7.org/CodeSystem/v3-ObservationInterpretation",
                "code": "H",
                "display": "High"
              }
            ]
          }
        ],
        "note": [
          {
            "text": "Definition: https://loinc.org/100741-8/"
          }
        ]
      },
      "request": {
        "method": "POST",
        "url": "Observation"
      }
    },
    {
      "fullUrl": "urn:uuid:b7fb0b1d-2554-4bb9-a0d9-da72ed4ed032",
      "resource": {
        "resourceType": "Observation",
        "id": "b7fb0b1d-2554-4bb9-a0d9-da72ed4ed032",
        "status": "final",
        "category": [
          {
            "coding": [
              {
                "system": "http://terminology.hl7.org/CodeSystem/observation-category",
                "code": "laboratory",
                "display": "Laboratory"
              }
            ],
            "text": "Laboratory"
          }
        ],
        "code": {
          "coding": [
            {
              "system": "http://loinc.org",
              "code": "107900-3",
              "display": "Red seaweed IgG IA-aCnc"
            }
          ],
          "text": "AMA test"
        },
        "subject": {
          "reference": "Patient/a1df1c65-6971-4288-8b24-60bf0bfa866b"
        },
        "encounter": {
          "reference": "Encounter/b480ef32-bf09-4bc1-b0d7-a1b75b2529dd"
        },
        "effectiveDateTime": "2025-10-16",
        "note": [
          {
            "text": "Definition: https://loinc.org/107900-3/"
          }
        ]
      },
      "request": {
        "method": "POST",
        "url": "Observation"
      }
    },
    {
      "fullUrl": "urn:uuid:46da924b-42f7-44aa-b374-77aaada66e90",
      "resource": {
        "resourceType": "Observation",
        "id": "46da924b-42f7-44aa-b374-77aaada66e90",
        "status": "final",
        "category": [
          {
            "coding": [
              {
                "system": "http://terminology.hl7.org/CodeSystem/observation-category",
                "code": "exam",
                "display": "Exam"
              }
            ],
            "text": "Exam"
          }
        ],
        "code": {
          "coding": [
            {
              "system": "http://snomed.info/sct",
              "code": "84229001",
              "display": "Fatigue"
            }
          ],
          "text": "Fatigue"
        },
        "subject": {
          "reference": "Patient/a1df1c65-6971-4288-8b24-60bf0bfa866b"
        },
        "encounter": {
          "reference": "Encounter/b480ef32-bf09-4bc1-b0d7-a1b75b2529dd"
        },
        "effectivePeriod": {
          "start": "2025-10-16"
        },
        "valueBoolean": true,
        "note": [
          {
            "text": "Definition: https://snomed.info/id/84229001"
          }
        ]
      },
      "request": {
        "method": "POST",
        "url": "Observation"
      }
    },
    {
      "fullUrl": "urn:uuid:5ecb4ccd-5c13-4d81-a7f1-ee660e06d094",
      "resource": {
        "resourceType": "Observation",
        "id": "5ecb4ccd-5c13-4d81-a7f1-ee660e06d094",
        "status": "final",
        "category": [
          {
            "coding": [
              {
                "system": "http://terminology.hl7.org/CodeSystem/observation-category",
                "code": "exam",
                "display": "Exam"
              }
            ],
            "text": "Exam"
          }
        ],
        "code": {
          "coding": [
            {
              "system": "http://snomed.info/sct",
              "code": "275921007",
              "display": "Scalp itchy"
            }
          ],
          "text": "Itchy skin"
        },
        "subject": {
          "reference": "Patient/a1df1c65-6971-4288-8b24-60bf0bfa866b"
        },
        "encounter": {
          "reference": "Encounter/b480ef32-bf09-4bc1-b0d7-a1b75b2529dd"
        },
        "effectivePeriod": {
          "start": "2025-10-16"
        },
        "valueBoolean": true,
        "note": [
          {
            "text": "Definition: https://snomed.info/id/275921007"
          }
        ]
      },
      "request": {
        "method": "POST",
        "url": "Observation"
      }
    },
    {
      "fullUrl": "urn:uuid:fdce4f0c-23c4-446f-b9cd-2d55b29db0df",
      "resource": {
        "resourceType": "Observation",
        "id": "fdce4f0c-23c4-446f-b9cd-2d55b29db0df",
        "status": "final",
        "category": [
          {
            "coding": [
              {
                "system": "http://terminology.hl7.org/CodeSystem/observation-category",
                "code": "exam",
                "display": "Exam"
              }
            ],
            "text": "Exam"
          }
        ],
        "code": {
          "coding": [
            {
              "system": "http://snomed.info/sct",
              "code": "246923005",
              "display": "Sunken eyes"
            }
          ],
          "text": "Yellowish eyes"
        },
        "subject": {
          "reference": "Patient/a1df1c65-6971-4288-8b24-60bf0bfa866b"
        },
        "encounter": {
          "reference": "Encounter/b480ef32-bf09-4bc1-b0d7-a1b75b2529dd"
        },
        "effectivePeriod": {
          "start": "2025-10-16"
        },
        "valueBoolean": true,
        "note": [
          {
            "text": "Definition: https://snomed.info/id/246923005"
          }
        ]
      },
      "request": {
        "method": "POST",
        "url": "Observation"
      }
    },
    {
      "fullUrl": "urn:uuid:e748d91b-214f-49c0-9ca8-afc1d8868437",
      "resource": {
        "resourceType": "Observation",
        "id": "e748d91b-214f-49c0-9ca8-afc1d8868437",
        "status": "final",
        "category": [
          {
            "coding": [
              {
                "system": "http://terminology.hl7.org/CodeSystem/observation-category",
                "code": "exam",
                "display": "Exam"
              }
            ],
            "text": "Exam"
          }
        ],
        "code": {
          "coding": [
            {
              "system": "http://snomed.info/sct",
              "code": "246975001",
              "display": "Scleral icterus"
            }
          ],
          "text": "Scleral icterus"
        },
        "subject": {
          "reference": "Patient/a1df1c65-6971-4288-8b24-60bf0bfa866b"
        },
        "encounter": {
          "reference": "Encounter/b480ef32-bf09-4bc1-b0d7-a1b75b2529dd"
        },
        "effectivePeriod": {
          "start": "2025-10-16"
        },
        "valueBoolean": true,
        "note": [
          {
            "text": "Definition: https://snomed.info/id/246975001"
          }
        ]
      },
      "request": {
        "method": "POST",
        "url": "Observation"
      }
    },
    {
      "fullUrl": "urn:uuid:aad670aa-cf32-491d-a635-a2585a72abba",
      "resource": {
        "resourceType": "Observation",
        "id": "aad670aa-cf32-491d-a635-a2585a72abba",
        "status": "final",
        "category": [
          {
            "coding": [
              {
                "system": "http://terminology.hl7.org/CodeSystem/observation-category",
                "code": "exam",
                "display": "Exam"
              }
            ],
            "text": "Exam"
          }
        ],
        "code": {
          "coding": [
            {
              "system": "http://snomed.info/sct"
            }
          ],
          "text": "Xanthomas"
        },
        "subject": {
          "reference": "Patient/a1df1c65-6971-4288-8b24-60bf0bfa866b"
        },
        "encounter": {
          "reference": "Encounter/b480ef32-bf09-4bc1-b0d7-a1b75b2529dd"
        },
        "effectivePeriod": {
          "start": "2025-10-16"
        },
        "valueBoolean": true,
        "note": [
          {
            "text": "Definition: https://snomed.info/id/None"
          }
        ]
      },
      "request": {
        "method": "POST",
        "url": "Observation"
      }
    },
    {
      "fullUrl": "urn:uuid:61cc9a48-262c-44d5-99ca-9af2f6c1c2a5",
      "resource": {
        "resourceType": "List",
        "id": "61cc9a48-262c-44d5-99ca-9af2f6c1c2a5",
        "contained": [
          {
            "resourceType": "FamilyMemberHistory",
            "id": "fmh-1",
            "status": "completed",
            "patient": {
              "reference": "Patient/a1df1c65-6971-4288-8b24-60bf0bfa866b"
            },
            "relationship": {
              "coding": [
                {
                  "system": "http://snomed.info/sct",
                  "code": "736454006",
                  "display": "Maternal aunt"
                }
              ]
            },
            "deceasedBoolean": false,
            "condition": [
              {
                "code": {
                  "coding": [
                    {
                      "system": "http://snomed.info/sct",
                      "code": "235890007",
                      "display": "Autoimmune liver disease"
                    }
                  ]
                }
              }
            ]
          }
        ],
        "status": "current",
        "mode": "snapshot",
        "code": {
          "coding": [
            {
              "system": "http://loinc.org",
              "code": "8670-2",
              "display": "History of family member diseases"
            }
          ]
        },
        "subject": [
          {
            "reference": "Patient/a1df1c65-6971-4288-8b24-60bf0bfa866b"
          }
        ],
        "entry": [
          {
            "item": {
              "reference": "#fmh-1"
            }
          }
        ]
      },
      "request": {
        "method": "POST",
        "url": "FamilyMemberHistory"
      }
    }
  ]
}