{
  "resourceType": "Bundle",
  "type": "transaction",
  "entry": [
    {
      "fullUrl": "urn:uuid:5e0bf1d7-eb28-4c01-a8f6-2320244cc6c6",
      "resource": {
        "resourceType": "Patient",
        "id": "5e0bf1d7-eb28-4c01-a8f6-2320244cc6c6",
        "name": [
          {
            "family": "Golubeva",
            "given": [
              "Maria"
            ]
          }
        ],
        "gender": "female",
        "address": [
          {}
        ]
      },
      "request": {
        "method": "POST",
        "url": "Patient"
      }
    },
    {
      "fullUrl": "urn:uuid:e836bda9-54d0-4fc1-ad6b-520d0dad2cd4",
      "resource": {
        "resourceType": "Encounter",
        "id": "e836bda9-54d0-4fc1-ad6b-520d0dad2cd4",
        "identifier": [
          {
            "use": "temp",
            "value": "Encounter_Maria Golubeva_20251017183003"
          }
        ],
        "status": "completed",
        "priority": {
          "coding": [
            {
              "system": "http://snomed.info/sct",
              "code": "17621005",
              "display": "Normal"
            }
          ]
        },
        "type": [
          {
            "coding": [
              {
                "system": "http://snomed.info/sct",
                "code": "11429006",
                "display": "Consultation"
              }
            ]
          }
        ],
        "subject": {
          "reference": "Patient/5e0bf1d7-eb28-4c01-a8f6-2320244cc6c6",
          "display": "Maria Golubeva"
        },
        "reason": [
          {
            "value": [
              {
                "concept": {
                  "text": "complaints of fatigue, pruritus, and right upper quadrant discomfort"
                }
              }
            ]
          }
        ]
      },
      "request": {
        "method": "POST",
        "url": "Encounter"
      }
    },
    {
      "fullUrl": "urn:uuid:ee31ca35-3cee-4923-88f1-35d2afbdbc4e",
      "resource": {
        "resourceType": "Observation",
        "id": "ee31ca35-3cee-4923-88f1-35d2afbdbc4e",
        "status": "final",
        "category": [
          {
            "coding": [
              {
                "system": "http://terminology.hl7.org/CodeSystem/observation-category",
                "code": "laboratory",
                "display": "Laboratory"
              }
            ],
            "text": "Laboratory"
          }
        ],
        "code": {
          "coding": [
            {
              "system": "http://loinc.org",
              "code": "62898-2",
              "display": "PhenX - alkaline phosphatase protocol 170101"
            }
          ],
          "text": "Alkaline Phosphatase"
        },
        "subject": {
          "reference": "Patient/5e0bf1d7-eb28-4c01-a8f6-2320244cc6c6"
        },
        "encounter": {
          "reference": "Encounter/e836bda9-54d0-4fc1-ad6b-520d0dad2cd4"
        },
        "effectiveDateTime": "2025-10-16",
        "interpretation": [
          {
            "coding": [
              {
                "system": "http://terminology.hl7.org/CodeSystem/v3-ObservationInterpretation",
                "code": "H",
                "display": "High"
              }
            ]
          }
        ],
        "note": [
          {
            "text": "Definition: https://loinc.org/62898-2/"
          }
        ]
      },
      "request": {
        "method": "POST",
        "url": "Observation"
      }
    },
    {
      "fullUrl": "urn:uuid:17b67b9e-4768-46c1-a0d7-20ad594ea4d9",
      "resource": {
        "resourceType": "Observation",
        "id": "17b67b9e-4768-46c1-a0d7-20ad594ea4d9",
        "status": "final",
        "category": [
          {
            "coding": [
              {
                "system": "http://terminology.hl7.org/CodeSystem/observation-category",
                "code": "laboratory",
                "display": "Laboratory"
              }
            ],
            "text": "Laboratory"
          }
        ],
        "code": {
          "coding": [
            {
              "system": "http://loinc.org",
              "code": "93005-7",
              "display": "Rapid alt hand move - L+R mean Score"
            }
          ],
          "text": "ALT"
        },
        "subject": {
          "reference": "Patient/5e0bf1d7-eb28-4c01-a8f6-2320244cc6c6"
        },
        "encounter": {
          "reference": "Encounter/e836bda9-54d0-4fc1-ad6b-520d0dad2cd4"
        },
        "effectiveDateTime": "2025-10-16",
        "interpretation": [
          {
            "coding": [
              {
                "system": "http://terminology.hl7.org/CodeSystem/v3-ObservationInterpretation",
                "code": "H",
                "display": "High"
              }
            ]
          }
        ],
        "note": [
          {
            "text": "Definition: https://loinc.org/93005-7/"
          }
        ]
      },
      "request": {
        "method": "POST",
        "url": "Observation"
      }
    },
    {
      "fullUrl": "urn:uuid:5d89053e-6ec6-4797-861e-62b45b3e79aa",
      "resource": {
        "resourceType": "Observation",
        "id": "5d89053e-6ec6-4797-861e-62b45b3e79aa",
        "status": "final",
        "category": [
          {
            "coding": [
              {
                "system": "http://terminology.hl7.org/CodeSystem/observation-category",
                "code": "laboratory",
                "display": "Laboratory"
              }
            ],
            "text": "Laboratory"
          }
        ],
        "code": {
          "coding": [
            {
              "system": "http://loinc.org",
              "code": "unknown",
              "display": "Anti-mitochondrial Antibody (AMA) Test"
            }
          ],
          "text": "Anti-mitochondrial Antibody (AMA) Test"
        },
        "subject": {
          "reference": "Patient/5e0bf1d7-eb28-4c01-a8f6-2320244cc6c6"
        },
        "encounter": {
          "reference": "Encounter/e836bda9-54d0-4fc1-ad6b-520d0dad2cd4"
        },
        "effectiveDateTime": "2025-10-16"
      },
      "request": {
        "method": "POST",
        "url": "Observation"
      }
    },
    {
      "fullUrl": "urn:uuid:f0faef65-ebcb-476e-b75b-978d638d063b",
      "resource": {
        "resourceType": "Observation",
        "id": "f0faef65-ebcb-476e-b75b-978d638d063b",
        "status": "final",
        "category": [
          {
            "coding": [
              {
                "system": "http://terminology.hl7.org/CodeSystem/observation-category",
                "code": "exam",
                "display": "Exam"
              }
            ],
            "text": "Exam"
          }
        ],
        "code": {
          "coding": [
            {
              "system": "http://snomed.info/sct",
              "code": "84229001",
              "display": "Fatigue"
            }
          ],
          "text": "Fatigue"
        },
        "subject": {
          "reference": "Patient/5e0bf1d7-eb28-4c01-a8f6-2320244cc6c6"
        },
        "encounter": {
          "reference": "Encounter/e836bda9-54d0-4fc1-ad6b-520d0dad2cd4"
        },
        "effectivePeriod": {
          "start": "2025-10-16"
        },
        "valueBoolean": true,
        "note": [
          {
            "text": "Definition: https://snomed.info/id/84229001"
          }
        ]
      },
      "request": {
        "method": "POST",
        "url": "Observation"
      }
    },
    {
      "fullUrl": "urn:uuid:e9854be8-751f-4d5c-83e1-48a4408d663e",
      "resource": {
        "resourceType": "Observation",
        "id": "e9854be8-751f-4d5c-83e1-48a4408d663e",
        "status": "final",
        "category": [
          {
            "coding": [
              {
                "system": "http://terminology.hl7.org/CodeSystem/observation-category",
                "code": "exam",
                "display": "Exam"
              }
            ],
            "text": "Exam"
          }
        ],
        "code": {
          "coding": [
            {
              "system": "http://snomed.info/sct",
              "code": "90446007",
              "display": "Pruritus ani"
            }
          ],
          "text": "Pruritus"
        },
        "subject": {
          "reference": "Patient/5e0bf1d7-eb28-4c01-a8f6-2320244cc6c6"
        },
        "encounter": {
          "reference": "Encounter/e836bda9-54d0-4fc1-ad6b-520d0dad2cd4"
        },
        "effectivePeriod": {
          "start": "2025-10-16"
        },
        "valueBoolean": true,
        "note": [
          {
            "text": "Definition: https://snomed.info/id/90446007"
          }
        ]
      },
      "request": {
        "method": "POST",
        "url": "Observation"
      }
    },
    {
      "fullUrl": "urn:uuid:fc7e09a5-7417-4f15-920b-71251dcb1ae5",
      "resource": {
        "resourceType": "Observation",
        "id": "fc7e09a5-7417-4f15-920b-71251dcb1ae5",
        "status": "final",
        "category": [
          {
            "coding": [
              {
                "system": "http://terminology.hl7.org/CodeSystem/observation-category",
                "code": "exam",
                "display": "Exam"
              }
            ],
            "text": "Exam"
          }
        ],
        "code": {
          "coding": [
            {
              "system": "http://snomed.info/sct",
              "code": "255497008",
              "display": "Right upper quadrant"
            }
          ],
          "text": "Right Upper Quadrant Discomfort"
        },
        "subject": {
          "reference": "Patient/5e0bf1d7-eb28-4c01-a8f6-2320244cc6c6"
        },
        "encounter": {
          "reference": "Encounter/e836bda9-54d0-4fc1-ad6b-520d0dad2cd4"
        },
        "effectivePeriod": {
          "start": "2025-10-16"
        },
        "valueBoolean": true,
        "note": [
          {
            "text": "Definition: https://snomed.info/id/255497008"
          }
        ]
      },
      "request": {
        "method": "POST",
        "url": "Observation"
      }
    },
    {
      "fullUrl": "urn:uuid:76d434ce-818d-4ab4-9ca0-9fb5e04f96a6",
      "resource": {
        "resourceType": "List",
        "id": "76d434ce-818d-4ab4-9ca0-9fb5e04f96a6",
        "contained": [
          {
            "resourceType": "FamilyMemberHistory",
            "id": "fmh-1",
            "status": "completed",
            "patient": {
              "reference": "Patient/5e0bf1d7-eb28-4c01-a8f6-2320244cc6c6"
            },
            "relationship": {
              "coding": [
                {
                  "system": "http://snomed.info/sct",
                  "code": "72705000",
                  "display": "Mother"
                }
              ]
            },
            "deceasedBoolean": false,
            "condition": [
              {
                "code": {
                  "coding": [
                    {
                      "system": "http://snomed.info/sct",
                      "code": "85828009",
                      "display": "Autoimmune disease"
                    }
                  ]
                }
              }
            ]
          }
        ],
        "status": "current",
        "mode": "snapshot",
        "code": {
          "coding": [
            {
              "system": "http://loinc.org",
              "code": "8670-2",
              "display": "History of family member diseases"
            }
          ]
        },
        "subject": [
          {
            "reference": "Patient/5e0bf1d7-eb28-4c01-a8f6-2320244cc6c6"
          }
        ],
        "entry": [
          {
            "item": {
              "reference": "#fmh-1"
            }
          }
        ]
      },
      "request": {
        "method": "POST",
        "url": "FamilyMemberHistory"
      }
    }
  ]
}