{
  "resourceType": "Bundle",
  "type": "transaction",
  "entry": [
    {
      "fullUrl": "urn:uuid:047c8ed2-1893-4d89-9202-93ec626c9a39",
      "resource": {
        "resourceType": "Patient",
        "id": "047c8ed2-1893-4d89-9202-93ec626c9a39",
        "name": [
          {
            "family": "Ivanov",
            "given": [
              "Viktor"
            ]
          }
        ],
        "gender": "male",
        "birthDate": "1980-07-04",
        "address": [
          {}
        ]
      },
      "request": {
        "method": "POST",
        "url": "Patient"
      }
    },
    {
      "fullUrl": "urn:uuid:bc37674f-9629-485c-9752-dcf5173e3cae",
      "resource": {
        "resourceType": "Encounter",
        "id": "bc37674f-9629-485c-9752-dcf5173e3cae",
        "identifier": [
          {
            "use": "temp",
            "value": "Encounter_Viktor Ivanov_20251020132021"
          }
        ],
        "status": "completed",
        "priority": {
          "coding": [
            {
              "system": "http://snomed.info/sct",
              "code": "17621005",
              "display": "Normal"
            }
          ]
        },
        "type": [
          {
            "coding": [
              {
                "system": "http://snomed.info/sct",
                "code": "11429006",
                "display": "Consultation"
              }
            ]
          }
        ],
        "subject": {
          "reference": "Patient/047c8ed2-1893-4d89-9202-93ec626c9a39",
          "display": "Viktor Ivanov"
        },
        "reason": [
          {
            "value": [
              {
                "concept": {
                  "text": "increasing fatigue and itchy skin over the past 8 months"
                }
              }
            ]
          }
        ]
      },
      "request": {
        "method": "POST",
        "url": "Encounter"
      }
    },
    {
      "fullUrl": "urn:uuid:2a7663e4-e6bb-4c56-95e1-f1af4dcc2601",
      "resource": {
        "resourceType": "Observation",
        "id": "2a7663e4-e6bb-4c56-95e1-f1af4dcc2601",
        "status": "final",
        "category": [
          {
            "coding": [
              {
                "system": "http://terminology.hl7.org/CodeSystem/observation-category",
                "code": "laboratory",
                "display": "Laboratory"
              }
            ],
            "text": "Laboratory"
          }
        ],
        "code": {
          "coding": [
            {
              "system": "http://loinc.org",
              "code": "78442-1",
              "display": "Bilirub Indirect Prt-sCnc"
            }
          ],
          "text": "Bilirubin"
        },
        "subject": {
          "reference": "Patient/047c8ed2-1893-4d89-9202-93ec626c9a39"
        },
        "encounter": {
          "reference": "Encounter/bc37674f-9629-485c-9752-dcf5173e3cae"
        },
        "effectiveDateTime": "2025-10-16",
        "interpretation": [
          {
            "coding": [
              {
                "system": "http://terminology.hl7.org/CodeSystem/v3-ObservationInterpretation",
                "code": "H",
                "display": "High"
              }
            ]
          }
        ],
        "note": [
          {
            "text": "Definition: https://loinc.org/78442-1/"
          }
        ]
      },
      "request": {
        "method": "POST",
        "url": "Observation"
      }
    },
    {
      "fullUrl": "urn:uuid:5d247730-2c02-4a5e-9f9e-f16abcd16b1d",
      "resource": {
        "resourceType": "Observation",
        "id": "5d247730-2c02-4a5e-9f9e-f16abcd16b1d",
        "status": "final",
        "category": [
          {
            "coding": [
              {
                "system": "http://terminology.hl7.org/CodeSystem/observation-category",
                "code": "laboratory",
                "display": "Laboratory"
              }
            ],
            "text": "Laboratory"
          }
        ],
        "code": {
          "coding": [
            {
              "system": "http://loinc.org",
              "code": "62898-2",
              "display": "PhenX - alkaline phosphatase protocol 170101"
            }
          ],
          "text": "Alkaline Phosphatase"
        },
        "subject": {
          "reference": "Patient/047c8ed2-1893-4d89-9202-93ec626c9a39"
        },
        "encounter": {
          "reference": "Encounter/bc37674f-9629-485c-9752-dcf5173e3cae"
        },
        "effectiveDateTime": "2025-10-16",
        "interpretation": [
          {
            "coding": [
              {
                "system": "http://terminology.hl7.org/CodeSystem/v3-ObservationInterpretation",
                "code": "H",
                "display": "High"
              }
            ]
          }
        ],
        "note": [
          {
            "text": "Definition: https://loinc.org/62898-2/"
          }
        ]
      },
      "request": {
        "method": "POST",
        "url": "Observation"
      }
    },
    {
      "fullUrl": "urn:uuid:9ba4625d-8431-4d26-92ba-08752aefa19d",
      "resource": {
        "resourceType": "Observation",
        "id": "9ba4625d-8431-4d26-92ba-08752aefa19d",
        "status": "final",
        "category": [
          {
            "coding": [
              {
                "system": "http://terminology.hl7.org/CodeSystem/observation-category",
                "code": "laboratory",
                "display": "Laboratory"
              }
            ],
            "text": "Laboratory"
          }
        ],
        "code": {
          "coding": [
            {
              "system": "http://loinc.org",
              "code": "100741-8",
              "display": "GGT Macro SerPl Ql"
            }
          ],
          "text": "GGT"
        },
        "subject": {
          "reference": "Patient/047c8ed2-1893-4d89-9202-93ec626c9a39"
        },
        "encounter": {
          "reference": "Encounter/bc37674f-9629-485c-9752-dcf5173e3cae"
        },
        "effectiveDateTime": "2025-10-16",
        "interpretation": [
          {
            "coding": [
              {
                "system": "http://terminology.hl7.org/CodeSystem/v3-ObservationInterpretation",
                "code": "H",
                "display": "High"
              }
            ]
          }
        ],
        "note": [
          {
            "text": "Definition: https://loinc.org/100741-8/"
          }
        ]
      },
      "request": {
        "method": "POST",
        "url": "Observation"
      }
    },
    {
      "fullUrl": "urn:uuid:529ee190-c414-461e-90b4-62f61f9be72d",
      "resource": {
        "resourceType": "Observation",
        "id": "529ee190-c414-461e-90b4-62f61f9be72d",
        "status": "final",
        "category": [
          {
            "coding": [
              {
                "system": "http://terminology.hl7.org/CodeSystem/observation-category",
                "code": "laboratory",
                "display": "Laboratory"
              }
            ],
            "text": "Laboratory"
          }
        ],
        "code": {
          "coding": [
            {
              "system": "http://loinc.org",
              "code": "107900-3",
              "display": "Red seaweed IgG IA-aCnc"
            }
          ],
          "text": "AMA test"
        },
        "subject": {
          "reference": "Patient/047c8ed2-1893-4d89-9202-93ec626c9a39"
        },
        "encounter": {
          "reference": "Encounter/bc37674f-9629-485c-9752-dcf5173e3cae"
        },
        "effectiveDateTime": "2025-10-16",
        "note": [
          {
            "text": "Definition: https://loinc.org/107900-3/"
          }
        ]
      },
      "request": {
        "method": "POST",
        "url": "Observation"
      }
    },
    {
      "fullUrl": "urn:uuid:6d537d5f-5535-4708-8ddf-738323725bb9",
      "resource": {
        "resourceType": "Observation",
        "id": "6d537d5f-5535-4708-8ddf-738323725bb9",
        "status": "final",
        "category": [
          {
            "coding": [
              {
                "system": "http://terminology.hl7.org/CodeSystem/observation-category",
                "code": "exam",
                "display": "Exam"
              }
            ],
            "text": "Exam"
          }
        ],
        "code": {
          "coding": [
            {
              "system": "http://snomed.info/sct",
              "code": "84229001",
              "display": "Fatigue"
            }
          ],
          "text": "Fatigue"
        },
        "subject": {
          "reference": "Patient/047c8ed2-1893-4d89-9202-93ec626c9a39"
        },
        "encounter": {
          "reference": "Encounter/bc37674f-9629-485c-9752-dcf5173e3cae"
        },
        "effectivePeriod": {
          "start": "2025-10-16"
        },
        "valueBoolean": true,
        "note": [
          {
            "text": "Definition: https://snomed.info/id/84229001"
          }
        ]
      },
      "request": {
        "method": "POST",
        "url": "Observation"
      }
    },
    {
      "fullUrl": "urn:uuid:8e9dbe10-bda2-4ac3-8c8c-6ea0f615d933",
      "resource": {
        "resourceType": "Observation",
        "id": "8e9dbe10-bda2-4ac3-8c8c-6ea0f615d933",
        "status": "final",
        "category": [
          {
            "coding": [
              {
                "system": "http://terminology.hl7.org/CodeSystem/observation-category",
                "code": "exam",
                "display": "Exam"
              }
            ],
            "text": "Exam"
          }
        ],
        "code": {
          "coding": [
            {
              "system": "http://snomed.info/sct",
              "code": "275921007",
              "display": "Scalp itchy"
            }
          ],
          "text": "Itchy skin"
        },
        "subject": {
          "reference": "Patient/047c8ed2-1893-4d89-9202-93ec626c9a39"
        },
        "encounter": {
          "reference": "Encounter/bc37674f-9629-485c-9752-dcf5173e3cae"
        },
        "effectivePeriod": {
          "start": "2025-10-16"
        },
        "valueBoolean": true,
        "note": [
          {
            "text": "Definition: https://snomed.info/id/275921007"
          }
        ]
      },
      "request": {
        "method": "POST",
        "url": "Observation"
      }
    },
    {
      "fullUrl": "urn:uuid:5002492e-4e28-4dea-bb58-a2e9571bf984",
      "resource": {
        "resourceType": "Observation",
        "id": "5002492e-4e28-4dea-bb58-a2e9571bf984",
        "status": "final",
        "category": [
          {
            "coding": [
              {
                "system": "http://terminology.hl7.org/CodeSystem/observation-category",
                "code": "exam",
                "display": "Exam"
              }
            ],
            "text": "Exam"
          }
        ],
        "code": {
          "coding": [
            {
              "system": "http://snomed.info/sct",
              "code": "246923005",
              "display": "Sunken eyes"
            }
          ],
          "text": "Yellowish eyes"
        },
        "subject": {
          "reference": "Patient/047c8ed2-1893-4d89-9202-93ec626c9a39"
        },
        "encounter": {
          "reference": "Encounter/bc37674f-9629-485c-9752-dcf5173e3cae"
        },
        "effectivePeriod": {
          "start": "2025-10-16"
        },
        "valueBoolean": true,
        "note": [
          {
            "text": "Definition: https://snomed.info/id/246923005"
          }
        ]
      },
      "request": {
        "method": "POST",
        "url": "Observation"
      }
    },
    {
      "fullUrl": "urn:uuid:9e9d3205-5f46-4845-a135-2fed1a0f207d",
      "resource": {
        "resourceType": "Observation",
        "id": "9e9d3205-5f46-4845-a135-2fed1a0f207d",
        "status": "final",
        "category": [
          {
            "coding": [
              {
                "system": "http://terminology.hl7.org/CodeSystem/observation-category",
                "code": "exam",
                "display": "Exam"
              }
            ],
            "text": "Exam"
          }
        ],
        "code": {
          "coding": [
            {
              "system": "http://snomed.info/sct",
              "code": "246975001",
              "display": "Scleral icterus"
            }
          ],
          "text": "Scleral icterus"
        },
        "subject": {
          "reference": "Patient/047c8ed2-1893-4d89-9202-93ec626c9a39"
        },
        "encounter": {
          "reference": "Encounter/bc37674f-9629-485c-9752-dcf5173e3cae"
        },
        "effectivePeriod": {
          "start": "2025-10-16"
        },
        "valueBoolean": true,
        "note": [
          {
            "text": "Definition: https://snomed.info/id/246975001"
          }
        ]
      },
      "request": {
        "method": "POST",
        "url": "Observation"
      }
    },
    {
      "fullUrl": "urn:uuid:732e369c-6bf2-4fae-af33-e9d47de83895",
      "resource": {
        "resourceType": "Observation",
        "id": "732e369c-6bf2-4fae-af33-e9d47de83895",
        "status": "final",
        "category": [
          {
            "coding": [
              {
                "system": "http://terminology.hl7.org/CodeSystem/observation-category",
                "code": "exam",
                "display": "Exam"
              }
            ],
            "text": "Exam"
          }
        ],
        "code": {
          "coding": [
            {
              "system": "http://snomed.info/sct"
            }
          ],
          "text": "Xanthomas"
        },
        "subject": {
          "reference": "Patient/047c8ed2-1893-4d89-9202-93ec626c9a39"
        },
        "encounter": {
          "reference": "Encounter/bc37674f-9629-485c-9752-dcf5173e3cae"
        },
        "effectivePeriod": {
          "start": "2025-10-16"
        },
        "valueBoolean": true,
        "note": [
          {
            "text": "Definition: https://snomed.info/id/None"
          }
        ]
      },
      "request": {
        "method": "POST",
        "url": "Observation"
      }
    },
    {
      "fullUrl": "urn:uuid:407b551d-9024-430b-87e4-557b5e5ec852",
      "resource": {
        "resourceType": "List",
        "id": "407b551d-9024-430b-87e4-557b5e5ec852",
        "contained": [
          {
            "resourceType": "FamilyMemberHistory",
            "id": "fmh-1",
            "status": "completed",
            "patient": {
              "reference": "Patient/047c8ed2-1893-4d89-9202-93ec626c9a39"
            },
            "relationship": {
              "coding": [
                {
                  "system": "http://snomed.info/sct",
                  "code": "736454006",
                  "display": "Maternal aunt"
                }
              ]
            },
            "deceasedBoolean": false,
            "condition": [
              {
                "code": {
                  "coding": [
                    {
                      "system": "http://snomed.info/sct",
                      "code": "235890007",
                      "display": "Autoimmune liver disease"
                    }
                  ]
                }
              }
            ]
          }
        ],
        "status": "current",
        "mode": "snapshot",
        "code": {
          "coding": [
            {
              "system": "http://loinc.org",
              "code": "8670-2",
              "display": "History of family member diseases"
            }
          ]
        },
        "subject": [
          {
            "reference": "Patient/047c8ed2-1893-4d89-9202-93ec626c9a39"
          }
        ],
        "entry": [
          {
            "item": {
              "reference": "#fmh-1"
            }
          }
        ]
      },
      "request": {
        "method": "POST",
        "url": "FamilyMemberHistory"
      }
    }
  ]
}