{
  "resourceType": "Bundle",
  "type": "transaction",
  "entry": [
    {
      "fullUrl": "urn:uuid:b2c4591c-c54c-45fd-a7ab-828e556511ce",
      "resource": {
        "resourceType": "Patient",
        "id": "b2c4591c-c54c-45fd-a7ab-828e556511ce",
        "name": [
          {
            "family": "Sidorova",
            "given": [
              "Marina"
            ]
          }
        ],
        "gender": "female",
        "birthDate": "2015-07-04",
        "address": [
          {}
        ]
      },
      "request": {
        "method": "POST",
        "url": "Patient"
      }
    },
    {
      "fullUrl": "urn:uuid:d8fc2503-795b-4846-898f-8f8aab1b6e51",
      "resource": {
        "resourceType": "Encounter",
        "id": "d8fc2503-795b-4846-898f-8f8aab1b6e51",
        "identifier": [
          {
            "use": "temp",
            "value": "Encounter_Marina Sidorova_20251023103545"
          }
        ],
        "status": "completed",
        "priority": {
          "coding": [
            {
              "system": "http://snomed.info/sct",
              "code": "17621005",
              "display": "Normal"
            }
          ]
        },
        "type": [
          {
            "coding": [
              {
                "system": "http://snomed.info/sct",
                "code": "11429006",
                "display": "Consultation"
              }
            ]
          }
        ],
        "subject": {
          "reference": "Patient/b2c4591c-c54c-45fd-a7ab-828e556511ce",
          "display": "Marina Sidorova"
        },
        "reason": [
          {
            "value": [
              {
                "concept": {
                  "text": "developmental delay and vision problems"
                }
              }
            ]
          }
        ]
      },
      "request": {
        "method": "POST",
        "url": "Encounter"
      }
    },
    {
      "fullUrl": "urn:uuid:20b8759c-4e7c-47a6-a941-55e61fcbef6e",
      "resource": {
        "resourceType": "Observation",
        "id": "20b8759c-4e7c-47a6-a941-55e61fcbef6e",
        "status": "final",
        "category": [
          {
            "coding": [
              {
                "system": "http://terminology.hl7.org/CodeSystem/observation-category",
                "code": "laboratory",
                "display": "Laboratory"
              }
            ],
            "text": "Laboratory"
          }
        ],
        "code": {
          "coding": [
            {
              "system": "http://loinc.org",
              "code": "32615-7",
              "display": "Hycs-Cys diS SerPl-sCnc"
            }
          ],
          "text": "Plasma Homocysteine"
        },
        "subject": {
          "reference": "Patient/b2c4591c-c54c-45fd-a7ab-828e556511ce"
        },
        "encounter": {
          "reference": "Encounter/d8fc2503-795b-4846-898f-8f8aab1b6e51"
        },
        "effectiveDateTime": "2025-10-16",
        "valueQuantity": {
          "value": 88.0,
          "unit": "µmol/L",
          "system": "http://unitsofmeasure.org",
          "code": "µmol/L"
        },
        "interpretation": [
          {
            "coding": [
              {
                "system": "http://terminology.hl7.org/CodeSystem/v3-ObservationInterpretation",
                "code": "H",
                "display": "High"
              }
            ]
          }
        ],
        "note": [
          {
            "text": "Definition: https://loinc.org/32615-7/"
          }
        ]
      },
      "request": {
        "method": "POST",
        "url": "Observation"
      }
    },
    {
      "fullUrl": "urn:uuid:6cae82eb-c5a2-46a1-a8e2-b4fdd09d5acc",
      "resource": {
        "resourceType": "Observation",
        "id": "6cae82eb-c5a2-46a1-a8e2-b4fdd09d5acc",
        "status": "final",
        "category": [
          {
            "coding": [
              {
                "system": "http://terminology.hl7.org/CodeSystem/observation-category",
                "code": "laboratory",
                "display": "Laboratory"
              }
            ],
            "text": "Laboratory"
          }
        ],
        "code": {
          "coding": [
            {
              "system": "http://loinc.org",
              "code": "55885-8",
              "display": "Vit B12b Ur-mCnc"
            }
          ],
          "text": "Vitamin B12"
        },
        "subject": {
          "reference": "Patient/b2c4591c-c54c-45fd-a7ab-828e556511ce"
        },
        "encounter": {
          "reference": "Encounter/d8fc2503-795b-4846-898f-8f8aab1b6e51"
        },
        "effectiveDateTime": "2025-10-16",
        "interpretation": [
          {
            "coding": [
              {
                "system": "http://terminology.hl7.org/CodeSystem/v3-ObservationInterpretation",
                "code": "L",
                "display": "Low"
              }
            ]
          }
        ],
        "note": [
          {
            "text": "Definition: https://loinc.org/55885-8/"
          }
        ]
      },
      "request": {
        "method": "POST",
        "url": "Observation"
      }
    },
    {
      "fullUrl": "urn:uuid:d999db7b-11fd-43da-a99a-480cd44532b0",
      "resource": {
        "resourceType": "Observation",
        "id": "d999db7b-11fd-43da-a99a-480cd44532b0",
        "status": "final",
        "category": [
          {
            "coding": [
              {
                "system": "http://terminology.hl7.org/CodeSystem/observation-category",
                "code": "exam",
                "display": "Exam"
              }
            ],
            "text": "Exam"
          }
        ],
        "code": {
          "coding": [
            {
              "system": "http://snomed.info/sct",
              "code": "248290002",
              "display": "Developmental delay"
            }
          ],
          "text": "Developmental Delay"
        },
        "subject": {
          "reference": "Patient/b2c4591c-c54c-45fd-a7ab-828e556511ce"
        },
        "encounter": {
          "reference": "Encounter/d8fc2503-795b-4846-898f-8f8aab1b6e51"
        },
        "effectivePeriod": {
          "start": "2025-10-16"
        },
        "valueBoolean": true,
        "note": [
          {
            "text": "Definition: https://snomed.info/id/248290002"
          }
        ]
      },
      "request": {
        "method": "POST",
        "url": "Observation"
      }
    },
    {
      "fullUrl": "urn:uuid:d3cdda77-3d13-4ce9-ae91-8765796b7dc4",
      "resource": {
        "resourceType": "Observation",
        "id": "d3cdda77-3d13-4ce9-ae91-8765796b7dc4",
        "status": "final",
        "category": [
          {
            "coding": [
              {
                "system": "http://terminology.hl7.org/CodeSystem/observation-category",
                "code": "exam",
                "display": "Exam"
              }
            ],
            "text": "Exam"
          }
        ],
        "code": {
          "coding": [
            {
              "system": "http://snomed.info/sct",
              "code": "248539004",
              "display": "Family problems"
            }
          ],
          "text": "Vision Problems"
        },
        "subject": {
          "reference": "Patient/b2c4591c-c54c-45fd-a7ab-828e556511ce"
        },
        "encounter": {
          "reference": "Encounter/d8fc2503-795b-4846-898f-8f8aab1b6e51"
        },
        "effectivePeriod": {
          "start": "2025-10-16"
        },
        "valueBoolean": true,
        "note": [
          {
            "text": "Definition: https://snomed.info/id/248539004"
          }
        ]
      },
      "request": {
        "method": "POST",
        "url": "Observation"
      }
    },
    {
      "fullUrl": "urn:uuid:cc73b9a8-5a81-493b-ade1-7b1f05900620",
      "resource": {
        "resourceType": "Observation",
        "id": "cc73b9a8-5a81-493b-ade1-7b1f05900620",
        "status": "final",
        "category": [
          {
            "coding": [
              {
                "system": "http://terminology.hl7.org/CodeSystem/observation-category",
                "code": "vital-signs",
                "display": "Vital Signs"
              }
            ],
            "text": "Vital Signs"
          }
        ],
        "code": {
          "coding": [
            {
              "system": "http://loinc.org",
              "code": "97057-4",
              "display": "Body mass index"
            }
          ],
          "text": "Body Mass Index"
        },
        "subject": {
          "reference": "Patient/b2c4591c-c54c-45fd-a7ab-828e556511ce"
        },
        "encounter": {
          "reference": "Encounter/d8fc2503-795b-4846-898f-8f8aab1b6e51"
        },
        "effectiveDateTime": "2025-10-16",
        "interpretation": [
          {
            "coding": [
              {
                "system": "http://terminology.hl7.org/CodeSystem/v3-ObservationInterpretation",
                "code": "L",
                "display": "Low"
              }
            ],
            "text": "Low"
          }
        ]
      },
      "request": {
        "method": "POST",
        "url": "Observation"
      }
    },
    {
      "fullUrl": "urn:uuid:104ba53f-396e-4495-8dda-c3f8fe7cff3e",
      "resource": {
        "resourceType": "Observation",
        "id": "104ba53f-396e-4495-8dda-c3f8fe7cff3e",
        "status": "final",
        "category": [
          {
            "coding": [
              {
                "system": "http://terminology.hl7.org/CodeSystem/observation-category",
                "code": "vital-signs",
                "display": "Vital Signs"
              }
            ],
            "text": "Vital Signs"
          }
        ],
        "code": {
          "coding": [
            {
              "system": "http://loinc.org",
              "code": "92998-4",
              "display": "Lower segment"
            }
          ],
          "text": "Height"
        },
        "subject": {
          "reference": "Patient/b2c4591c-c54c-45fd-a7ab-828e556511ce"
        },
        "encounter": {
          "reference": "Encounter/d8fc2503-795b-4846-898f-8f8aab1b6e51"
        },
        "effectiveDateTime": "2025-10-16",
        "interpretation": [
          {
            "coding": [
              {
                "system": "http://terminology.hl7.org/CodeSystem/v3-ObservationInterpretation",
                "code": "H",
                "display": "High"
              }
            ],
            "text": "High"
          }
        ]
      },
      "request": {
        "method": "POST",
        "url": "Observation"
      }
    },
    {
      "fullUrl": "urn:uuid:52c6aa7f-ce75-413c-930f-0ebec3ba8d23",
      "resource": {
        "resourceType": "List",
        "id": "52c6aa7f-ce75-413c-930f-0ebec3ba8d23",
        "contained": [
          {
            "resourceType": "FamilyMemberHistory",
            "id": "fmh-2",
            "status": "completed",
            "patient": {
              "reference": "Patient/b2c4591c-c54c-45fd-a7ab-828e556511ce"
            },
            "relationship": {
              "coding": [
                {
                  "system": "http://snomed.info/sct",
                  "code": "66839005",
                  "display": "Father"
                }
              ]
            },
            "deceasedBoolean": false,
            "condition": []
          }
        ],
        "status": "current",
        "mode": "snapshot",
        "code": {
          "coding": [
            {
              "system": "http://loinc.org",
              "code": "8670-2",
              "display": "History of family member diseases"
            }
          ]
        },
        "subject": [
          {
            "reference": "Patient/b2c4591c-c54c-45fd-a7ab-828e556511ce"
          }
        ],
        "note": [
          {
            "text": "Both parents are healthy and unrelated. There is no family history of metabolic disease."
          }
        ],
        "entry": [
          {
            "item": {
              "reference": "#fmh-2"
            }
          }
        ]
      },
      "request": {
        "method": "POST",
        "url": "FamilyMemberHistory"
      }
    }
  ]
}