{
  "resourceType": "Bundle",
  "type": "transaction",
  "entry": [
    {
      "fullUrl": "urn:uuid:0fd29786-4fbd-4f36-8752-c9c74a2edf30",
      "resource": {
        "resourceType": "Patient",
        "id": "0fd29786-4fbd-4f36-8752-c9c74a2edf30",
        "name": [
          {
            "family": "Kuznetsov",
            "given": [
              "Denis"
            ]
          }
        ],
        "gender": "male",
        "birthDate": "2011-01-01",
        "address": [
          {}
        ]
      },
      "request": {
        "method": "POST",
        "url": "Patient"
      }
    },
    {
      "fullUrl": "urn:uuid:98540e49-e1a0-4a76-9c40-b714d5b14744",
      "resource": {
        "resourceType": "Encounter",
        "id": "98540e49-e1a0-4a76-9c40-b714d5b14744",
        "identifier": [
          {
            "use": "temp",
            "value": "Encounter_Denis Kuznetsov_20251023103534"
          }
        ],
        "status": "completed",
        "priority": {
          "coding": [
            {
              "system": "http://snomed.info/sct",
              "code": "17621005",
              "display": "Normal"
            }
          ]
        },
        "type": [
          {
            "coding": [
              {
                "system": "http://snomed.info/sct",
                "code": "11429006",
                "display": "Consultation"
              }
            ]
          }
        ],
        "subject": {
          "reference": "Patient/0fd29786-4fbd-4f36-8752-c9c74a2edf30",
          "display": "Denis Kuznetsov"
        },
        "reason": [
          {
            "value": [
              {
                "concept": {
                  "text": "tall, slender build and myopia"
                }
              }
            ]
          }
        ]
      },
      "request": {
        "method": "POST",
        "url": "Encounter"
      }
    },
    {
      "fullUrl": "urn:uuid:e0a1d16d-935f-4180-9a27-68f2ac4eb3d0",
      "resource": {
        "resourceType": "Observation",
        "id": "e0a1d16d-935f-4180-9a27-68f2ac4eb3d0",
        "status": "final",
        "category": [
          {
            "coding": [
              {
                "system": "http://terminology.hl7.org/CodeSystem/observation-category",
                "code": "laboratory",
                "display": "Laboratory"
              }
            ],
            "text": "Laboratory"
          }
        ],
        "code": {
          "coding": [
            {
              "system": "http://loinc.org",
              "code": "32615-7",
              "display": "Hycs-Cys diS SerPl-sCnc"
            }
          ],
          "text": "Plasma Homocysteine"
        },
        "subject": {
          "reference": "Patient/0fd29786-4fbd-4f36-8752-c9c74a2edf30"
        },
        "encounter": {
          "reference": "Encounter/98540e49-e1a0-4a76-9c40-b714d5b14744"
        },
        "effectiveDateTime": "2025-10-16",
        "valueQuantity": {
          "value": 95.0,
          "unit": "µmol/L",
          "system": "http://unitsofmeasure.org",
          "code": "µmol/L"
        },
        "interpretation": [
          {
            "coding": [
              {
                "system": "http://terminology.hl7.org/CodeSystem/v3-ObservationInterpretation",
                "code": "H",
                "display": "High"
              }
            ]
          }
        ],
        "note": [
          {
            "text": "Definition: https://loinc.org/32615-7/"
          }
        ]
      },
      "request": {
        "method": "POST",
        "url": "Observation"
      }
    },
    {
      "fullUrl": "urn:uuid:2861967e-b062-4775-a857-50d4e229d8bd",
      "resource": {
        "resourceType": "Observation",
        "id": "2861967e-b062-4775-a857-50d4e229d8bd",
        "status": "final",
        "category": [
          {
            "coding": [
              {
                "system": "http://terminology.hl7.org/CodeSystem/observation-category",
                "code": "laboratory",
                "display": "Laboratory"
              }
            ],
            "text": "Laboratory"
          }
        ],
        "code": {
          "coding": [
            {
              "system": "http://loinc.org",
              "code": "2282-2",
              "display": "Folate Bld-mCnc"
            }
          ],
          "text": "Folate"
        },
        "subject": {
          "reference": "Patient/0fd29786-4fbd-4f36-8752-c9c74a2edf30"
        },
        "encounter": {
          "reference": "Encounter/98540e49-e1a0-4a76-9c40-b714d5b14744"
        },
        "effectiveDateTime": "2025-10-16",
        "interpretation": [
          {
            "coding": [
              {
                "system": "http://terminology.hl7.org/CodeSystem/v3-ObservationInterpretation",
                "code": "L",
                "display": "Low"
              }
            ]
          }
        ],
        "note": [
          {
            "text": "Definition: https://loinc.org/2282-2/"
          }
        ]
      },
      "request": {
        "method": "POST",
        "url": "Observation"
      }
    },
    {
      "fullUrl": "urn:uuid:16ebafd6-36a8-4968-b000-6544c02096d3",
      "resource": {
        "resourceType": "Observation",
        "id": "16ebafd6-36a8-4968-b000-6544c02096d3",
        "status": "final",
        "category": [
          {
            "coding": [
              {
                "system": "http://terminology.hl7.org/CodeSystem/observation-category",
                "code": "exam",
                "display": "Exam"
              }
            ],
            "text": "Exam"
          }
        ],
        "code": {
          "coding": [
            {
              "system": "http://snomed.info/sct",
              "code": "426469008",
              "display": "Pain radiating to left leg"
            }
          ],
          "text": "Leg pain"
        },
        "subject": {
          "reference": "Patient/0fd29786-4fbd-4f36-8752-c9c74a2edf30"
        },
        "encounter": {
          "reference": "Encounter/98540e49-e1a0-4a76-9c40-b714d5b14744"
        },
        "effectivePeriod": {
          "start": "2025-10-16"
        },
        "valueBoolean": true,
        "note": [
          {
            "text": "Definition: https://snomed.info/id/426469008"
          }
        ]
      },
      "request": {
        "method": "POST",
        "url": "Observation"
      }
    },
    {
      "fullUrl": "urn:uuid:1a0db071-bd4d-4438-85bc-6097a5d262c5",
      "resource": {
        "resourceType": "Observation",
        "id": "1a0db071-bd4d-4438-85bc-6097a5d262c5",
        "status": "final",
        "category": [
          {
            "coding": [
              {
                "system": "http://terminology.hl7.org/CodeSystem/observation-category",
                "code": "exam",
                "display": "Exam"
              }
            ],
            "text": "Exam"
          }
        ],
        "code": {
          "coding": [
            {
              "system": "http://snomed.info/sct",
              "code": "57190000",
              "display": "Myopia"
            }
          ],
          "text": "Myopia"
        },
        "subject": {
          "reference": "Patient/0fd29786-4fbd-4f36-8752-c9c74a2edf30"
        },
        "encounter": {
          "reference": "Encounter/98540e49-e1a0-4a76-9c40-b714d5b14744"
        },
        "effectivePeriod": {
          "start": "2025-10-16"
        },
        "valueBoolean": true,
        "note": [
          {
            "text": "Definition: https://snomed.info/id/57190000"
          }
        ]
      },
      "request": {
        "method": "POST",
        "url": "Observation"
      }
    },
    {
      "fullUrl": "urn:uuid:935e8b78-3b5b-47bb-91f5-a977e4de2bcb",
      "resource": {
        "resourceType": "Observation",
        "id": "935e8b78-3b5b-47bb-91f5-a977e4de2bcb",
        "status": "final",
        "category": [
          {
            "coding": [
              {
                "system": "http://terminology.hl7.org/CodeSystem/observation-category",
                "code": "vital-signs",
                "display": "Vital Signs"
              }
            ],
            "text": "Vital Signs"
          }
        ],
        "code": {
          "coding": [
            {
              "system": "http://loinc.org",
              "code": "92998-4",
              "display": "Lower segment"
            }
          ],
          "text": "Height"
        },
        "subject": {
          "reference": "Patient/0fd29786-4fbd-4f36-8752-c9c74a2edf30"
        },
        "encounter": {
          "reference": "Encounter/98540e49-e1a0-4a76-9c40-b714d5b14744"
        },
        "effectiveDateTime": "2025-10-16",
        "valueQuantity": {
          "value": 176.0,
          "unit": "cm",
          "system": "http://unitsofmeasure.org",
          "code": "cm"
        }
      },
      "request": {
        "method": "POST",
        "url": "Observation"
      }
    },
    {
      "fullUrl": "urn:uuid:adf108a2-55dd-4666-ad12-d71d2e466c24",
      "resource": {
        "resourceType": "Observation",
        "id": "adf108a2-55dd-4666-ad12-d71d2e466c24",
        "status": "final",
        "category": [
          {
            "coding": [
              {
                "system": "http://terminology.hl7.org/CodeSystem/observation-category",
                "code": "vital-signs",
                "display": "Vital Signs"
              }
            ],
            "text": "Vital Signs"
          }
        ],
        "code": {
          "coding": [
            {
              "system": "http://loinc.org",
              "code": "8337-8",
              "display": "Bdy weight special circumstances"
            }
          ],
          "text": "Weight"
        },
        "subject": {
          "reference": "Patient/0fd29786-4fbd-4f36-8752-c9c74a2edf30"
        },
        "encounter": {
          "reference": "Encounter/98540e49-e1a0-4a76-9c40-b714d5b14744"
        },
        "effectiveDateTime": "2025-10-16",
        "valueQuantity": {
          "value": 50.0,
          "unit": "kg",
          "system": "http://unitsofmeasure.org",
          "code": "kg"
        }
      },
      "request": {
        "method": "POST",
        "url": "Observation"
      }
    },
    {
      "fullUrl": "urn:uuid:048d53ef-a952-4490-a840-282c725c1a2e",
      "resource": {
        "resourceType": "Observation",
        "id": "048d53ef-a952-4490-a840-282c725c1a2e",
        "status": "final",
        "category": [
          {
            "coding": [
              {
                "system": "http://terminology.hl7.org/CodeSystem/observation-category",
                "code": "vital-signs",
                "display": "Vital Signs"
              }
            ],
            "text": "Vital Signs"
          }
        ],
        "code": {
          "coding": [
            {
              "system": "http://loinc.org",
              "code": "107102-6",
              "display": "BMI formula"
            }
          ],
          "text": "BMI"
        },
        "subject": {
          "reference": "Patient/0fd29786-4fbd-4f36-8752-c9c74a2edf30"
        },
        "encounter": {
          "reference": "Encounter/98540e49-e1a0-4a76-9c40-b714d5b14744"
        },
        "effectiveDateTime": "2025-10-16",
        "valueQuantity": {
          "value": 16.1,
          "unit": "kg/m²",
          "system": "http://unitsofmeasure.org",
          "code": "kg/m²"
        },
        "interpretation": [
          {
            "coding": [
              {
                "system": "http://terminology.hl7.org/CodeSystem/v3-ObservationInterpretation",
                "code": "L",
                "display": "Low"
              }
            ],
            "text": "Low"
          }
        ]
      },
      "request": {
        "method": "POST",
        "url": "Observation"
      }
    },
    {
      "fullUrl": "urn:uuid:df71a82f-5216-4fe9-8d44-621301b99f8d",
      "resource": {
        "resourceType": "List",
        "id": "df71a82f-5216-4fe9-8d44-621301b99f8d",
        "contained": [
          {
            "resourceType": "FamilyMemberHistory",
            "id": "fmh-1",
            "status": "completed",
            "patient": {
              "reference": "Patient/0fd29786-4fbd-4f36-8752-c9c74a2edf30"
            },
            "relationship": {
              "coding": [
                {
                  "system": "http://snomed.info/sct",
                  "code": "442031000124102",
                  "display": "Maternal uncle"
                }
              ]
            },
            "condition": [
              {
                "code": {
                  "coding": [
                    {
                      "system": "http://snomed.info/sct",
                      "code": "90096001",
                      "display": "Stroke volume"
                    }
                  ]
                }
              }
            ]
          }
        ],
        "status": "current",
        "mode": "snapshot",
        "code": {
          "coding": [
            {
              "system": "http://loinc.org",
              "code": "8670-2",
              "display": "History of family member diseases"
            }
          ]
        },
        "subject": [
          {
            "reference": "Patient/0fd29786-4fbd-4f36-8752-c9c74a2edf30"
          }
        ],
        "entry": [
          {
            "item": {
              "reference": "#fmh-1"
            }
          }
        ]
      },
      "request": {
        "method": "POST",
        "url": "FamilyMemberHistory"
      }
    }
  ]
}