{
  "resourceType": "Bundle",
  "type": "transaction",
  "entry": [
    {
      "fullUrl": "urn:uuid:0b503138-8cd7-43d1-8e24-bae2a1f10dee",
      "resource": {
        "resourceType": "Patient",
        "id": "0b503138-8cd7-43d1-8e24-bae2a1f10dee",
        "name": [
          {
            "family": "Tarasova",
            "given": [
              "Yulia"
            ]
          }
        ],
        "gender": "female",
        "address": [
          {}
        ]
      },
      "request": {
        "method": "POST",
        "url": "Patient"
      }
    },
    {
      "fullUrl": "urn:uuid:c889ec03-27cc-4883-a8f5-82384074a48e",
      "resource": {
        "resourceType": "Encounter",
        "id": "c889ec03-27cc-4883-a8f5-82384074a48e",
        "identifier": [
          {
            "use": "temp",
            "value": "Encounter_Yulia Tarasova_20251017182617"
          }
        ],
        "status": "completed",
        "priority": {
          "coding": [
            {
              "system": "http://snomed.info/sct",
              "code": "17621005",
              "display": "Normal"
            }
          ]
        },
        "type": [
          {
            "coding": [
              {
                "system": "http://snomed.info/sct",
                "code": "11429006",
                "display": "Consultation"
              }
            ]
          }
        ],
        "subject": {
          "reference": "Patient/0b503138-8cd7-43d1-8e24-bae2a1f10dee",
          "display": "Yulia Tarasova"
        },
        "reason": [
          {
            "value": [
              {
                "concept": {
                  "text": "intermittent high fevers, sore throat, and muscle aches"
                }
              }
            ]
          }
        ]
      },
      "request": {
        "method": "POST",
        "url": "Encounter"
      }
    },
    {
      "fullUrl": "urn:uuid:3e0d0dd3-3b66-4d39-8970-09f7ef7c787d",
      "resource": {
        "resourceType": "Observation",
        "id": "3e0d0dd3-3b66-4d39-8970-09f7ef7c787d",
        "status": "final",
        "category": [
          {
            "coding": [
              {
                "system": "http://terminology.hl7.org/CodeSystem/observation-category",
                "code": "laboratory",
                "display": "Laboratory"
              }
            ],
            "text": "Laboratory"
          }
        ],
        "code": {
          "coding": [
            {
              "system": "http://loinc.org",
              "code": "unknown",
              "display": "Leukocytosis"
            }
          ],
          "text": "Leukocytosis"
        },
        "subject": {
          "reference": "Patient/0b503138-8cd7-43d1-8e24-bae2a1f10dee"
        },
        "encounter": {
          "reference": "Encounter/c889ec03-27cc-4883-a8f5-82384074a48e"
        },
        "effectiveDateTime": "2025-10-16",
        "interpretation": [
          {
            "coding": [
              {
                "system": "http://terminology.hl7.org/CodeSystem/v3-ObservationInterpretation",
                "code": "A",
                "display": "Abnormal"
              }
            ]
          }
        ]
      },
      "request": {
        "method": "POST",
        "url": "Observation"
      }
    },
    {
      "fullUrl": "urn:uuid:11db1fde-d82f-46c4-b00a-578f359098a3",
      "resource": {
        "resourceType": "Observation",
        "id": "11db1fde-d82f-46c4-b00a-578f359098a3",
        "status": "final",
        "category": [
          {
            "coding": [
              {
                "system": "http://terminology.hl7.org/CodeSystem/observation-category",
                "code": "laboratory",
                "display": "Laboratory"
              }
            ],
            "text": "Laboratory"
          }
        ],
        "code": {
          "coding": [
            {
              "system": "http://loinc.org",
              "code": "93005-7",
              "display": "Rapid alt hand move - L+R mean Score"
            }
          ],
          "text": "ALT"
        },
        "subject": {
          "reference": "Patient/0b503138-8cd7-43d1-8e24-bae2a1f10dee"
        },
        "encounter": {
          "reference": "Encounter/c889ec03-27cc-4883-a8f5-82384074a48e"
        },
        "effectiveDateTime": "2025-10-16",
        "interpretation": [
          {
            "coding": [
              {
                "system": "http://terminology.hl7.org/CodeSystem/v3-ObservationInterpretation",
                "code": "A",
                "display": "Abnormal"
              }
            ]
          }
        ],
        "note": [
          {
            "text": "Definition: https://loinc.org/93005-7/"
          }
        ]
      },
      "request": {
        "method": "POST",
        "url": "Observation"
      }
    },
    {
      "fullUrl": "urn:uuid:2c9b4f88-0b95-48ff-8907-152d4281e626",
      "resource": {
        "resourceType": "Observation",
        "id": "2c9b4f88-0b95-48ff-8907-152d4281e626",
        "status": "final",
        "category": [
          {
            "coding": [
              {
                "system": "http://terminology.hl7.org/CodeSystem/observation-category",
                "code": "laboratory",
                "display": "Laboratory"
              }
            ],
            "text": "Laboratory"
          }
        ],
        "code": {
          "coding": [
            {
              "system": "http://loinc.org",
              "code": "1917-4",
              "display": "AST Amn-cCnc"
            }
          ],
          "text": "AST"
        },
        "subject": {
          "reference": "Patient/0b503138-8cd7-43d1-8e24-bae2a1f10dee"
        },
        "encounter": {
          "reference": "Encounter/c889ec03-27cc-4883-a8f5-82384074a48e"
        },
        "effectiveDateTime": "2025-10-16",
        "interpretation": [
          {
            "coding": [
              {
                "system": "http://terminology.hl7.org/CodeSystem/v3-ObservationInterpretation",
                "code": "A",
                "display": "Abnormal"
              }
            ]
          }
        ],
        "note": [
          {
            "text": "Definition: https://loinc.org/1917-4/"
          }
        ]
      },
      "request": {
        "method": "POST",
        "url": "Observation"
      }
    },
    {
      "fullUrl": "urn:uuid:9725357f-6fe1-4551-969e-d6a978bca59f",
      "resource": {
        "resourceType": "Observation",
        "id": "9725357f-6fe1-4551-969e-d6a978bca59f",
        "status": "final",
        "category": [
          {
            "coding": [
              {
                "system": "http://terminology.hl7.org/CodeSystem/observation-category",
                "code": "laboratory",
                "display": "Laboratory"
              }
            ],
            "text": "Laboratory"
          }
        ],
        "code": {
          "coding": [
            {
              "system": "http://loinc.org",
              "code": "102116-1",
              "display": "ESR1 gene mutation panel"
            }
          ],
          "text": "ESR"
        },
        "subject": {
          "reference": "Patient/0b503138-8cd7-43d1-8e24-bae2a1f10dee"
        },
        "encounter": {
          "reference": "Encounter/c889ec03-27cc-4883-a8f5-82384074a48e"
        },
        "effectiveDateTime": "2025-10-16",
        "valueQuantity": {
          "value": 90.0,
          "unit": "mm/hr",
          "system": "http://unitsofmeasure.org",
          "code": "mm/hr"
        },
        "interpretation": [
          {
            "coding": [
              {
                "system": "http://terminology.hl7.org/CodeSystem/v3-ObservationInterpretation",
                "code": "A",
                "display": "Abnormal"
              }
            ]
          }
        ],
        "note": [
          {
            "text": "Definition: https://loinc.org/102116-1/"
          }
        ]
      },
      "request": {
        "method": "POST",
        "url": "Observation"
      }
    },
    {
      "fullUrl": "urn:uuid:72860a97-7acd-4d6d-85db-c07d7bda6f26",
      "resource": {
        "resourceType": "Observation",
        "id": "72860a97-7acd-4d6d-85db-c07d7bda6f26",
        "status": "final",
        "category": [
          {
            "coding": [
              {
                "system": "http://terminology.hl7.org/CodeSystem/observation-category",
                "code": "laboratory",
                "display": "Laboratory"
              }
            ],
            "text": "Laboratory"
          }
        ],
        "code": {
          "coding": [
            {
              "system": "http://loinc.org",
              "code": "53048-5",
              "display": "Ferritin Fld-mCnc"
            }
          ],
          "text": "Ferritin"
        },
        "subject": {
          "reference": "Patient/0b503138-8cd7-43d1-8e24-bae2a1f10dee"
        },
        "encounter": {
          "reference": "Encounter/c889ec03-27cc-4883-a8f5-82384074a48e"
        },
        "effectiveDateTime": "2025-10-16",
        "valueQuantity": {
          "value": 3000.0,
          "unit": "ng/mL",
          "system": "http://unitsofmeasure.org",
          "code": "ng/mL"
        },
        "interpretation": [
          {
            "coding": [
              {
                "system": "http://terminology.hl7.org/CodeSystem/v3-ObservationInterpretation",
                "code": "A",
                "display": "Abnormal"
              }
            ]
          }
        ],
        "note": [
          {
            "text": "Definition: https://loinc.org/53048-5/"
          }
        ]
      },
      "request": {
        "method": "POST",
        "url": "Observation"
      }
    },
    {
      "fullUrl": "urn:uuid:6a8f5749-dfed-4d03-baba-94647d53c6b2",
      "resource": {
        "resourceType": "Observation",
        "id": "6a8f5749-dfed-4d03-baba-94647d53c6b2",
        "status": "final",
        "category": [
          {
            "coding": [
              {
                "system": "http://terminology.hl7.org/CodeSystem/observation-category",
                "code": "exam",
                "display": "Exam"
              }
            ],
            "text": "Exam"
          }
        ],
        "code": {
          "coding": [
            {
              "system": "http://snomed.info/sct",
              "code": "386661006",
              "display": "Fever"
            }
          ],
          "text": "Fever"
        },
        "subject": {
          "reference": "Patient/0b503138-8cd7-43d1-8e24-bae2a1f10dee"
        },
        "encounter": {
          "reference": "Encounter/c889ec03-27cc-4883-a8f5-82384074a48e"
        },
        "effectivePeriod": {
          "start": "2025-10-16"
        },
        "valueBoolean": true,
        "interpretation": [
          {
            "coding": [
              {
                "system": "http://terminology.hl7.org/CodeSystem/v3-ObservationInterpretation",
                "code": "A",
                "display": "Abnormal"
              }
            ],
            "text": "Abnormal"
          }
        ],
        "note": [
          {
            "text": "Definition: https://snomed.info/id/386661006"
          }
        ]
      },
      "request": {
        "method": "POST",
        "url": "Observation"
      }
    },
    {
      "fullUrl": "urn:uuid:d1a46699-36b0-44dd-88b5-796ed9f39596",
      "resource": {
        "resourceType": "Observation",
        "id": "d1a46699-36b0-44dd-88b5-796ed9f39596",
        "status": "final",
        "category": [
          {
            "coding": [
              {
                "system": "http://terminology.hl7.org/CodeSystem/observation-category",
                "code": "exam",
                "display": "Exam"
              }
            ],
            "text": "Exam"
          }
        ],
        "code": {
          "coding": [
            {
              "system": "http://snomed.info/sct",
              "code": "267102003",
              "display": "Sore throat"
            }
          ],
          "text": "Sore throat"
        },
        "subject": {
          "reference": "Patient/0b503138-8cd7-43d1-8e24-bae2a1f10dee"
        },
        "encounter": {
          "reference": "Encounter/c889ec03-27cc-4883-a8f5-82384074a48e"
        },
        "effectivePeriod": {
          "start": "2025-10-16"
        },
        "valueBoolean": true,
        "note": [
          {
            "text": "Definition: https://snomed.info/id/267102003"
          }
        ]
      },
      "request": {
        "method": "POST",
        "url": "Observation"
      }
    },
    {
      "fullUrl": "urn:uuid:da1b5a76-b57b-4071-9e22-8d024a18a547",
      "resource": {
        "resourceType": "Observation",
        "id": "da1b5a76-b57b-4071-9e22-8d024a18a547",
        "status": "final",
        "category": [
          {
            "coding": [
              {
                "system": "http://terminology.hl7.org/CodeSystem/observation-category",
                "code": "exam",
                "display": "Exam"
              }
            ],
            "text": "Exam"
          }
        ],
        "code": {
          "coding": [
            {
              "system": "http://snomed.info/sct",
              "code": "82991003",
              "display": "Generalized aches and pains"
            }
          ],
          "text": "Muscle aches"
        },
        "subject": {
          "reference": "Patient/0b503138-8cd7-43d1-8e24-bae2a1f10dee"
        },
        "encounter": {
          "reference": "Encounter/c889ec03-27cc-4883-a8f5-82384074a48e"
        },
        "effectivePeriod": {
          "start": "2025-10-16"
        },
        "valueBoolean": true,
        "note": [
          {
            "text": "Definition: https://snomed.info/id/82991003"
          }
        ]
      },
      "request": {
        "method": "POST",
        "url": "Observation"
      }
    },
    {
      "fullUrl": "urn:uuid:e441e944-ee2b-462d-9844-c4ac82bf6f46",
      "resource": {
        "resourceType": "Observation",
        "id": "e441e944-ee2b-462d-9844-c4ac82bf6f46",
        "status": "final",
        "category": [
          {
            "coding": [
              {
                "system": "http://terminology.hl7.org/CodeSystem/observation-category",
                "code": "exam",
                "display": "Exam"
              }
            ],
            "text": "Exam"
          }
        ],
        "code": {
          "coding": [
            {
              "system": "http://snomed.info/sct",
              "code": "89757007",
              "display": "Macular rash"
            }
          ],
          "text": "Rash"
        },
        "subject": {
          "reference": "Patient/0b503138-8cd7-43d1-8e24-bae2a1f10dee"
        },
        "encounter": {
          "reference": "Encounter/c889ec03-27cc-4883-a8f5-82384074a48e"
        },
        "effectivePeriod": {
          "start": "2025-10-16"
        },
        "valueBoolean": true,
        "note": [
          {
            "text": "Definition: https://snomed.info/id/89757007"
          }
        ]
      },
      "request": {
        "method": "POST",
        "url": "Observation"
      }
    },
    {
      "fullUrl": "urn:uuid:d0770b23-5906-4d26-bc80-896cdf08ca3a",
      "resource": {
        "resourceType": "Observation",
        "id": "d0770b23-5906-4d26-bc80-896cdf08ca3a",
        "status": "final",
        "category": [
          {
            "coding": [
              {
                "system": "http://terminology.hl7.org/CodeSystem/observation-category",
                "code": "vital-signs",
                "display": "Vital Signs"
              }
            ],
            "text": "Vital Signs"
          }
        ],
        "code": {
          "coding": [
            {
              "system": "http://loinc.org",
              "code": "8310-5",
              "display": "Body temperature"
            }
          ],
          "text": "temperature"
        },
        "subject": {
          "reference": "Patient/0b503138-8cd7-43d1-8e24-bae2a1f10dee"
        },
        "encounter": {
          "reference": "Encounter/c889ec03-27cc-4883-a8f5-82384074a48e"
        },
        "effectiveDateTime": "2025-10-16",
        "valueQuantity": {
          "value": 39.5,
          "unit": "°C",
          "system": "http://unitsofmeasure.org",
          "code": "°C"
        },
        "interpretation": [
          {
            "coding": [
              {
                "system": "http://terminology.hl7.org/CodeSystem/v3-ObservationInterpretation",
                "code": "A",
                "display": "Abnormal"
              }
            ],
            "text": "Abnormal"
          }
        ]
      },
      "request": {
        "method": "POST",
        "url": "Observation"
      }
    },
    {
      "fullUrl": "urn:uuid:2dd402a3-e204-4c98-9f57-748bfa5df6a4",
      "resource": {
        "resourceType": "List",
        "id": "2dd402a3-e204-4c98-9f57-748bfa5df6a4",
        "contained": [
          {
            "resourceType": "FamilyMemberHistory",
            "id": "fmh-1",
            "status": "completed",
            "patient": {
              "reference": "Patient/0b503138-8cd7-43d1-8e24-bae2a1f10dee"
            },
            "relationship": {
              "coding": [
                {
                  "system": "http://snomed.info/sct",
                  "code": "72705000",
                  "display": "Mother"
                }
              ]
            },
            "deceasedBoolean": false,
            "condition": [
              {
                "code": {
                  "coding": [
                    {
                      "system": "http://snomed.info/sct",
                      "code": "69896004",
                      "display": "Rheumatoid arthritis"
                    }
                  ]
                }
              }
            ]
          }
        ],
        "status": "current",
        "mode": "snapshot",
        "code": {
          "coding": [
            {
              "system": "http://loinc.org",
              "code": "8670-2",
              "display": "History of family member diseases"
            }
          ]
        },
        "subject": [
          {
            "reference": "Patient/0b503138-8cd7-43d1-8e24-bae2a1f10dee"
          }
        ],
        "note": [
          {
            "text": "family history of autoimmunity"
          }
        ],
        "entry": [
          {
            "item": {
              "reference": "#fmh-1"
            }
          }
        ]
      },
      "request": {
        "method": "POST",
        "url": "FamilyMemberHistory"
      }
    }
  ]
}