{
  "resourceType": "Bundle",
  "type": "transaction",
  "entry": [
    {
      "fullUrl": "urn:uuid:acd684ed-2b60-4eeb-b436-34ba0fefc676",
      "resource": {
        "resourceType": "Patient",
        "id": "acd684ed-2b60-4eeb-b436-34ba0fefc676",
        "name": [
          {
            "family": "Sokolov",
            "given": [
              "Ivan"
            ]
          }
        ],
        "gender": "male",
        "birthDate": "1999-01-01",
        "address": [
          {}
        ]
      },
      "request": {
        "method": "POST",
        "url": "Patient"
      }
    },
    {
      "fullUrl": "urn:uuid:cb88320e-bdd2-443c-ae08-9481cffe818f",
      "resource": {
        "resourceType": "Encounter",
        "id": "cb88320e-bdd2-443c-ae08-9481cffe818f",
        "identifier": [
          {
            "use": "temp",
            "value": "Encounter_Ivan Sokolov_20251020131703"
          }
        ],
        "status": "completed",
        "priority": {
          "coding": [
            {
              "system": "http://snomed.info/sct",
              "code": "17621005",
              "display": "Normal"
            }
          ]
        },
        "type": [
          {
            "coding": [
              {
                "system": "http://snomed.info/sct",
                "code": "11429006",
                "display": "Consultation"
              }
            ]
          }
        ],
        "subject": {
          "reference": "Patient/acd684ed-2b60-4eeb-b436-34ba0fefc676",
          "display": "Ivan Sokolov"
        },
        "reason": [
          {
            "value": [
              {
                "concept": {
                  "text": "recurring episodes of high fever, sore throat, and a diffuse rash"
                }
              }
            ]
          }
        ]
      },
      "request": {
        "method": "POST",
        "url": "Encounter"
      }
    },
    {
      "fullUrl": "urn:uuid:2f4d99c7-785e-403c-98ae-40341255e9d1",
      "resource": {
        "resourceType": "Observation",
        "id": "2f4d99c7-785e-403c-98ae-40341255e9d1",
        "status": "final",
        "category": [
          {
            "coding": [
              {
                "system": "http://terminology.hl7.org/CodeSystem/observation-category",
                "code": "laboratory",
                "display": "Laboratory"
              }
            ],
            "text": "Laboratory"
          }
        ],
        "code": {
          "coding": [
            {
              "system": "http://loinc.org",
              "code": "53048-5",
              "display": "Ferritin Fld-mCnc"
            }
          ],
          "text": "Ferritin"
        },
        "subject": {
          "reference": "Patient/acd684ed-2b60-4eeb-b436-34ba0fefc676"
        },
        "encounter": {
          "reference": "Encounter/cb88320e-bdd2-443c-ae08-9481cffe818f"
        },
        "effectiveDateTime": "2025-10-16",
        "valueQuantity": {
          "value": 2800.0,
          "unit": "ng/mL",
          "system": "http://unitsofmeasure.org",
          "code": "ng/mL"
        },
        "interpretation": [
          {
            "coding": [
              {
                "system": "http://terminology.hl7.org/CodeSystem/v3-ObservationInterpretation",
                "code": "H",
                "display": "High"
              }
            ]
          }
        ],
        "note": [
          {
            "text": "Definition: https://loinc.org/53048-5/"
          }
        ]
      },
      "request": {
        "method": "POST",
        "url": "Observation"
      }
    },
    {
      "fullUrl": "urn:uuid:776d5476-e95e-4a8c-9d3f-99ee12363838",
      "resource": {
        "resourceType": "Observation",
        "id": "776d5476-e95e-4a8c-9d3f-99ee12363838",
        "status": "final",
        "category": [
          {
            "coding": [
              {
                "system": "http://terminology.hl7.org/CodeSystem/observation-category",
                "code": "laboratory",
                "display": "Laboratory"
              }
            ],
            "text": "Laboratory"
          }
        ],
        "code": {
          "coding": [
            {
              "system": "http://loinc.org",
              "code": "93005-7",
              "display": "Rapid alt hand move - L+R mean Score"
            }
          ],
          "text": "ALT"
        },
        "subject": {
          "reference": "Patient/acd684ed-2b60-4eeb-b436-34ba0fefc676"
        },
        "encounter": {
          "reference": "Encounter/cb88320e-bdd2-443c-ae08-9481cffe818f"
        },
        "effectiveDateTime": "2025-10-16",
        "interpretation": [
          {
            "coding": [
              {
                "system": "http://terminology.hl7.org/CodeSystem/v3-ObservationInterpretation",
                "code": "A",
                "display": "Abnormal"
              }
            ]
          }
        ],
        "note": [
          {
            "text": "Definition: https://loinc.org/93005-7/"
          }
        ]
      },
      "request": {
        "method": "POST",
        "url": "Observation"
      }
    },
    {
      "fullUrl": "urn:uuid:65923460-7d3c-465e-b065-da72ac48d9c0",
      "resource": {
        "resourceType": "Observation",
        "id": "65923460-7d3c-465e-b065-da72ac48d9c0",
        "status": "final",
        "category": [
          {
            "coding": [
              {
                "system": "http://terminology.hl7.org/CodeSystem/observation-category",
                "code": "laboratory",
                "display": "Laboratory"
              }
            ],
            "text": "Laboratory"
          }
        ],
        "code": {
          "coding": [
            {
              "system": "http://loinc.org",
              "code": "102116-1",
              "display": "ESR1 gene mutation panel"
            }
          ],
          "text": "ESR"
        },
        "subject": {
          "reference": "Patient/acd684ed-2b60-4eeb-b436-34ba0fefc676"
        },
        "encounter": {
          "reference": "Encounter/cb88320e-bdd2-443c-ae08-9481cffe818f"
        },
        "effectiveDateTime": "2025-10-16",
        "valueQuantity": {
          "value": 80.0,
          "unit": "mm/hr",
          "system": "http://unitsofmeasure.org",
          "code": "mm/hr"
        },
        "interpretation": [
          {
            "coding": [
              {
                "system": "http://terminology.hl7.org/CodeSystem/v3-ObservationInterpretation",
                "code": "H",
                "display": "High"
              }
            ]
          }
        ],
        "note": [
          {
            "text": "Definition: https://loinc.org/102116-1/"
          }
        ]
      },
      "request": {
        "method": "POST",
        "url": "Observation"
      }
    },
    {
      "fullUrl": "urn:uuid:3422871e-3e85-4f64-a687-e34b23d2c4d0",
      "resource": {
        "resourceType": "Observation",
        "id": "3422871e-3e85-4f64-a687-e34b23d2c4d0",
        "status": "final",
        "category": [
          {
            "coding": [
              {
                "system": "http://terminology.hl7.org/CodeSystem/observation-category",
                "code": "exam",
                "display": "Exam"
              }
            ],
            "text": "Exam"
          }
        ],
        "code": {
          "coding": [
            {
              "system": "http://snomed.info/sct",
              "code": "386661006",
              "display": "Fever"
            }
          ],
          "text": "Fever"
        },
        "subject": {
          "reference": "Patient/acd684ed-2b60-4eeb-b436-34ba0fefc676"
        },
        "encounter": {
          "reference": "Encounter/cb88320e-bdd2-443c-ae08-9481cffe818f"
        },
        "effectivePeriod": {
          "start": "2025-10-16"
        },
        "valueBoolean": true,
        "interpretation": [
          {
            "coding": [
              {
                "system": "http://terminology.hl7.org/CodeSystem/v3-ObservationInterpretation",
                "code": "H",
                "display": "High"
              }
            ],
            "text": "High"
          }
        ],
        "note": [
          {
            "text": "Definition: https://snomed.info/id/386661006"
          }
        ]
      },
      "request": {
        "method": "POST",
        "url": "Observation"
      }
    },
    {
      "fullUrl": "urn:uuid:bc864714-ea4e-4ae5-a9e5-b5914f2b3980",
      "resource": {
        "resourceType": "Observation",
        "id": "bc864714-ea4e-4ae5-a9e5-b5914f2b3980",
        "status": "final",
        "category": [
          {
            "coding": [
              {
                "system": "http://terminology.hl7.org/CodeSystem/observation-category",
                "code": "exam",
                "display": "Exam"
              }
            ],
            "text": "Exam"
          }
        ],
        "code": {
          "coding": [
            {
              "system": "http://snomed.info/sct",
              "code": "267102003",
              "display": "Sore throat"
            }
          ],
          "text": "Sore throat"
        },
        "subject": {
          "reference": "Patient/acd684ed-2b60-4eeb-b436-34ba0fefc676"
        },
        "encounter": {
          "reference": "Encounter/cb88320e-bdd2-443c-ae08-9481cffe818f"
        },
        "effectivePeriod": {
          "start": "2025-10-16"
        },
        "valueBoolean": true,
        "note": [
          {
            "text": "Definition: https://snomed.info/id/267102003"
          }
        ]
      },
      "request": {
        "method": "POST",
        "url": "Observation"
      }
    },
    {
      "fullUrl": "urn:uuid:32412faf-9971-427e-8380-0b9fd256626a",
      "resource": {
        "resourceType": "Observation",
        "id": "32412faf-9971-427e-8380-0b9fd256626a",
        "status": "final",
        "category": [
          {
            "coding": [
              {
                "system": "http://terminology.hl7.org/CodeSystem/observation-category",
                "code": "exam",
                "display": "Exam"
              }
            ],
            "text": "Exam"
          }
        ],
        "code": {
          "coding": [
            {
              "system": "http://snomed.info/sct",
              "code": "725119006",
              "display": "Generalized rash"
            }
          ],
          "text": "Diffuse rash"
        },
        "subject": {
          "reference": "Patient/acd684ed-2b60-4eeb-b436-34ba0fefc676"
        },
        "encounter": {
          "reference": "Encounter/cb88320e-bdd2-443c-ae08-9481cffe818f"
        },
        "effectivePeriod": {
          "start": "2025-10-16"
        },
        "valueBoolean": true,
        "note": [
          {
            "text": "Definition: https://snomed.info/id/725119006"
          }
        ]
      },
      "request": {
        "method": "POST",
        "url": "Observation"
      }
    },
    {
      "fullUrl": "urn:uuid:519a8d8a-9951-43a1-8233-23d37f898c0f",
      "resource": {
        "resourceType": "Observation",
        "id": "519a8d8a-9951-43a1-8233-23d37f898c0f",
        "status": "final",
        "category": [
          {
            "coding": [
              {
                "system": "http://terminology.hl7.org/CodeSystem/observation-category",
                "code": "exam",
                "display": "Exam"
              }
            ],
            "text": "Exam"
          }
        ],
        "code": {
          "coding": [
            {
              "system": "http://snomed.info/sct",
              "code": "816160009",
              "display": "Weight loss"
            }
          ],
          "text": "Weight loss"
        },
        "subject": {
          "reference": "Patient/acd684ed-2b60-4eeb-b436-34ba0fefc676"
        },
        "encounter": {
          "reference": "Encounter/cb88320e-bdd2-443c-ae08-9481cffe818f"
        },
        "effectivePeriod": {
          "start": "2025-10-16"
        },
        "valueBoolean": true,
        "note": [
          {
            "text": "Definition: https://snomed.info/id/816160009"
          }
        ]
      },
      "request": {
        "method": "POST",
        "url": "Observation"
      }
    },
    {
      "fullUrl": "urn:uuid:41561e00-1780-4ccf-b205-77f8f5fd6e70",
      "resource": {
        "resourceType": "Observation",
        "id": "41561e00-1780-4ccf-b205-77f8f5fd6e70",
        "status": "final",
        "category": [
          {
            "coding": [
              {
                "system": "http://terminology.hl7.org/CodeSystem/observation-category",
                "code": "exam",
                "display": "Exam"
              }
            ],
            "text": "Exam"
          }
        ],
        "code": {
          "coding": [
            {
              "system": "http://snomed.info/sct",
              "code": "84229001",
              "display": "Fatigue"
            }
          ],
          "text": "Fatigue"
        },
        "subject": {
          "reference": "Patient/acd684ed-2b60-4eeb-b436-34ba0fefc676"
        },
        "encounter": {
          "reference": "Encounter/cb88320e-bdd2-443c-ae08-9481cffe818f"
        },
        "effectivePeriod": {
          "start": "2025-10-16"
        },
        "valueBoolean": true,
        "note": [
          {
            "text": "Definition: https://snomed.info/id/84229001"
          }
        ]
      },
      "request": {
        "method": "POST",
        "url": "Observation"
      }
    },
    {
      "fullUrl": "urn:uuid:8acd6d86-c79e-4a0f-8d0d-e04864942ef5",
      "resource": {
        "resourceType": "Observation",
        "id": "8acd6d86-c79e-4a0f-8d0d-e04864942ef5",
        "status": "final",
        "category": [
          {
            "coding": [
              {
                "system": "http://terminology.hl7.org/CodeSystem/observation-category",
                "code": "vital-signs",
                "display": "Vital Signs"
              }
            ],
            "text": "Vital Signs"
          }
        ],
        "code": {
          "coding": [
            {
              "system": "http://loinc.org",
              "code": "8310-5",
              "display": "Body temperature"
            }
          ],
          "text": "temperature"
        },
        "subject": {
          "reference": "Patient/acd684ed-2b60-4eeb-b436-34ba0fefc676"
        },
        "encounter": {
          "reference": "Encounter/cb88320e-bdd2-443c-ae08-9481cffe818f"
        },
        "effectiveDateTime": "2025-10-16",
        "valueQuantity": {
          "value": 40.0,
          "unit": "degrees C",
          "system": "http://unitsofmeasure.org",
          "code": "degrees C"
        },
        "interpretation": [
          {
            "coding": [
              {
                "system": "http://terminology.hl7.org/CodeSystem/v3-ObservationInterpretation",
                "code": "H",
                "display": "High"
              }
            ],
            "text": "High"
          }
        ]
      },
      "request": {
        "method": "POST",
        "url": "Observation"
      }
    }
  ]
}