{
  "resourceType": "Bundle",
  "type": "transaction",
  "entry": [
    {
      "fullUrl": "urn:uuid:d23e9d70-02b1-4c5e-b38a-f80a9c1c1db4",
      "resource": {
        "resourceType": "Patient",
        "id": "d23e9d70-02b1-4c5e-b38a-f80a9c1c1db4",
        "name": [
          {
            "family": "Tarasova",
            "given": [
              "Yulia"
            ]
          }
        ],
        "gender": "female",
        "birthDate": "1993-01-01",
        "address": [
          {}
        ]
      },
      "request": {
        "method": "POST",
        "url": "Patient"
      }
    },
    {
      "fullUrl": "urn:uuid:758b7e7a-fcc2-408e-9bd1-8cbc9ea11fa5",
      "resource": {
        "resourceType": "Encounter",
        "id": "758b7e7a-fcc2-408e-9bd1-8cbc9ea11fa5",
        "identifier": [
          {
            "use": "temp",
            "value": "Encounter_Yulia Tarasova_20251022152155"
          }
        ],
        "status": "completed",
        "priority": {
          "coding": [
            {
              "system": "http://snomed.info/sct",
              "code": "17621005",
              "display": "Normal"
            }
          ]
        },
        "type": [
          {
            "coding": [
              {
                "system": "http://snomed.info/sct",
                "code": "11429006",
                "display": "Consultation"
              }
            ]
          }
        ],
        "subject": {
          "reference": "Patient/d23e9d70-02b1-4c5e-b38a-f80a9c1c1db4",
          "display": "Yulia Tarasova"
        },
        "reason": [
          {
            "value": [
              {
                "concept": {
                  "text": "intermittent high fevers, sore throat, and muscle aches"
                }
              }
            ]
          }
        ]
      },
      "request": {
        "method": "POST",
        "url": "Encounter"
      }
    },
    {
      "fullUrl": "urn:uuid:515b6533-25da-49fc-8414-66b3bcf29038",
      "resource": {
        "resourceType": "Observation",
        "id": "515b6533-25da-49fc-8414-66b3bcf29038",
        "status": "final",
        "category": [
          {
            "coding": [
              {
                "system": "http://terminology.hl7.org/CodeSystem/observation-category",
                "code": "laboratory",
                "display": "Laboratory"
              }
            ],
            "text": "Laboratory"
          }
        ],
        "code": {
          "coding": [
            {
              "system": "http://loinc.org",
              "code": "unknown",
              "display": "Leukocytosis"
            }
          ],
          "text": "Leukocytosis"
        },
        "subject": {
          "reference": "Patient/d23e9d70-02b1-4c5e-b38a-f80a9c1c1db4"
        },
        "encounter": {
          "reference": "Encounter/758b7e7a-fcc2-408e-9bd1-8cbc9ea11fa5"
        },
        "effectiveDateTime": "2025-10-16",
        "interpretation": [
          {
            "coding": [
              {
                "system": "http://terminology.hl7.org/CodeSystem/v3-ObservationInterpretation",
                "code": "A",
                "display": "Abnormal"
              }
            ]
          }
        ]
      },
      "request": {
        "method": "POST",
        "url": "Observation"
      }
    },
    {
      "fullUrl": "urn:uuid:bdd7e5ed-5764-46d3-95db-6bb8793e2f6b",
      "resource": {
        "resourceType": "Observation",
        "id": "bdd7e5ed-5764-46d3-95db-6bb8793e2f6b",
        "status": "final",
        "category": [
          {
            "coding": [
              {
                "system": "http://terminology.hl7.org/CodeSystem/observation-category",
                "code": "laboratory",
                "display": "Laboratory"
              }
            ],
            "text": "Laboratory"
          }
        ],
        "code": {
          "coding": [
            {
              "system": "http://loinc.org",
              "code": "93005-7",
              "display": "Rapid alt hand move - L+R mean Score"
            }
          ],
          "text": "ALT"
        },
        "subject": {
          "reference": "Patient/d23e9d70-02b1-4c5e-b38a-f80a9c1c1db4"
        },
        "encounter": {
          "reference": "Encounter/758b7e7a-fcc2-408e-9bd1-8cbc9ea11fa5"
        },
        "effectiveDateTime": "2025-10-16",
        "interpretation": [
          {
            "coding": [
              {
                "system": "http://terminology.hl7.org/CodeSystem/v3-ObservationInterpretation",
                "code": "A",
                "display": "Abnormal"
              }
            ]
          }
        ],
        "note": [
          {
            "text": "Definition: https://loinc.org/93005-7/"
          }
        ]
      },
      "request": {
        "method": "POST",
        "url": "Observation"
      }
    },
    {
      "fullUrl": "urn:uuid:b3082b5d-846a-41b9-8299-8be54ac55472",
      "resource": {
        "resourceType": "Observation",
        "id": "b3082b5d-846a-41b9-8299-8be54ac55472",
        "status": "final",
        "category": [
          {
            "coding": [
              {
                "system": "http://terminology.hl7.org/CodeSystem/observation-category",
                "code": "laboratory",
                "display": "Laboratory"
              }
            ],
            "text": "Laboratory"
          }
        ],
        "code": {
          "coding": [
            {
              "system": "http://loinc.org",
              "code": "1917-4",
              "display": "AST Amn-cCnc"
            }
          ],
          "text": "AST"
        },
        "subject": {
          "reference": "Patient/d23e9d70-02b1-4c5e-b38a-f80a9c1c1db4"
        },
        "encounter": {
          "reference": "Encounter/758b7e7a-fcc2-408e-9bd1-8cbc9ea11fa5"
        },
        "effectiveDateTime": "2025-10-16",
        "interpretation": [
          {
            "coding": [
              {
                "system": "http://terminology.hl7.org/CodeSystem/v3-ObservationInterpretation",
                "code": "A",
                "display": "Abnormal"
              }
            ]
          }
        ],
        "note": [
          {
            "text": "Definition: https://loinc.org/1917-4/"
          }
        ]
      },
      "request": {
        "method": "POST",
        "url": "Observation"
      }
    },
    {
      "fullUrl": "urn:uuid:e868074e-4c10-4b53-8997-8569e71adbef",
      "resource": {
        "resourceType": "Observation",
        "id": "e868074e-4c10-4b53-8997-8569e71adbef",
        "status": "final",
        "category": [
          {
            "coding": [
              {
                "system": "http://terminology.hl7.org/CodeSystem/observation-category",
                "code": "laboratory",
                "display": "Laboratory"
              }
            ],
            "text": "Laboratory"
          }
        ],
        "code": {
          "coding": [
            {
              "system": "http://loinc.org",
              "code": "102116-1",
              "display": "ESR1 gene mutation panel"
            }
          ],
          "text": "ESR"
        },
        "subject": {
          "reference": "Patient/d23e9d70-02b1-4c5e-b38a-f80a9c1c1db4"
        },
        "encounter": {
          "reference": "Encounter/758b7e7a-fcc2-408e-9bd1-8cbc9ea11fa5"
        },
        "effectiveDateTime": "2025-10-16",
        "valueQuantity": {
          "value": 90.0,
          "unit": "mm/hr",
          "system": "http://unitsofmeasure.org",
          "code": "mm/hr"
        },
        "interpretation": [
          {
            "coding": [
              {
                "system": "http://terminology.hl7.org/CodeSystem/v3-ObservationInterpretation",
                "code": "A",
                "display": "Abnormal"
              }
            ]
          }
        ],
        "note": [
          {
            "text": "Definition: https://loinc.org/102116-1/"
          }
        ]
      },
      "request": {
        "method": "POST",
        "url": "Observation"
      }
    },
    {
      "fullUrl": "urn:uuid:2abd0908-437d-4e72-9225-650af89aac16",
      "resource": {
        "resourceType": "Observation",
        "id": "2abd0908-437d-4e72-9225-650af89aac16",
        "status": "final",
        "category": [
          {
            "coding": [
              {
                "system": "http://terminology.hl7.org/CodeSystem/observation-category",
                "code": "laboratory",
                "display": "Laboratory"
              }
            ],
            "text": "Laboratory"
          }
        ],
        "code": {
          "coding": [
            {
              "system": "http://loinc.org",
              "code": "53048-5",
              "display": "Ferritin Fld-mCnc"
            }
          ],
          "text": "Ferritin"
        },
        "subject": {
          "reference": "Patient/d23e9d70-02b1-4c5e-b38a-f80a9c1c1db4"
        },
        "encounter": {
          "reference": "Encounter/758b7e7a-fcc2-408e-9bd1-8cbc9ea11fa5"
        },
        "effectiveDateTime": "2025-10-16",
        "valueQuantity": {
          "value": 3000.0,
          "unit": "ng/mL",
          "system": "http://unitsofmeasure.org",
          "code": "ng/mL"
        },
        "interpretation": [
          {
            "coding": [
              {
                "system": "http://terminology.hl7.org/CodeSystem/v3-ObservationInterpretation",
                "code": "A",
                "display": "Abnormal"
              }
            ]
          }
        ],
        "note": [
          {
            "text": "Definition: https://loinc.org/53048-5/"
          }
        ]
      },
      "request": {
        "method": "POST",
        "url": "Observation"
      }
    },
    {
      "fullUrl": "urn:uuid:27f47fde-0f6c-4c33-a130-383d75183e4a",
      "resource": {
        "resourceType": "Observation",
        "id": "27f47fde-0f6c-4c33-a130-383d75183e4a",
        "status": "final",
        "category": [
          {
            "coding": [
              {
                "system": "http://terminology.hl7.org/CodeSystem/observation-category",
                "code": "exam",
                "display": "Exam"
              }
            ],
            "text": "Exam"
          }
        ],
        "code": {
          "coding": [
            {
              "system": "http://snomed.info/sct",
              "code": "386661006",
              "display": "Fever"
            }
          ],
          "text": "Fever"
        },
        "subject": {
          "reference": "Patient/d23e9d70-02b1-4c5e-b38a-f80a9c1c1db4"
        },
        "encounter": {
          "reference": "Encounter/758b7e7a-fcc2-408e-9bd1-8cbc9ea11fa5"
        },
        "effectivePeriod": {
          "start": "2025-10-16"
        },
        "valueBoolean": true,
        "interpretation": [
          {
            "coding": [
              {
                "system": "http://terminology.hl7.org/CodeSystem/v3-ObservationInterpretation",
                "code": "A",
                "display": "Abnormal"
              }
            ],
            "text": "Abnormal"
          }
        ],
        "note": [
          {
            "text": "Definition: https://snomed.info/id/386661006"
          }
        ]
      },
      "request": {
        "method": "POST",
        "url": "Observation"
      }
    },
    {
      "fullUrl": "urn:uuid:33fe2baf-697d-4057-a1d6-7fc7d80cdbbf",
      "resource": {
        "resourceType": "Observation",
        "id": "33fe2baf-697d-4057-a1d6-7fc7d80cdbbf",
        "status": "final",
        "category": [
          {
            "coding": [
              {
                "system": "http://terminology.hl7.org/CodeSystem/observation-category",
                "code": "exam",
                "display": "Exam"
              }
            ],
            "text": "Exam"
          }
        ],
        "code": {
          "coding": [
            {
              "system": "http://snomed.info/sct",
              "code": "267102003",
              "display": "Sore throat"
            }
          ],
          "text": "Sore throat"
        },
        "subject": {
          "reference": "Patient/d23e9d70-02b1-4c5e-b38a-f80a9c1c1db4"
        },
        "encounter": {
          "reference": "Encounter/758b7e7a-fcc2-408e-9bd1-8cbc9ea11fa5"
        },
        "effectivePeriod": {
          "start": "2025-10-16"
        },
        "valueBoolean": true,
        "note": [
          {
            "text": "Definition: https://snomed.info/id/267102003"
          }
        ]
      },
      "request": {
        "method": "POST",
        "url": "Observation"
      }
    },
    {
      "fullUrl": "urn:uuid:b6217ffd-27de-495f-8ff0-2d7f9fcd5e75",
      "resource": {
        "resourceType": "Observation",
        "id": "b6217ffd-27de-495f-8ff0-2d7f9fcd5e75",
        "status": "final",
        "category": [
          {
            "coding": [
              {
                "system": "http://terminology.hl7.org/CodeSystem/observation-category",
                "code": "exam",
                "display": "Exam"
              }
            ],
            "text": "Exam"
          }
        ],
        "code": {
          "coding": [
            {
              "system": "http://snomed.info/sct",
              "code": "82991003",
              "display": "Generalized aches and pains"
            }
          ],
          "text": "Muscle aches"
        },
        "subject": {
          "reference": "Patient/d23e9d70-02b1-4c5e-b38a-f80a9c1c1db4"
        },
        "encounter": {
          "reference": "Encounter/758b7e7a-fcc2-408e-9bd1-8cbc9ea11fa5"
        },
        "effectivePeriod": {
          "start": "2025-10-16"
        },
        "valueBoolean": true,
        "note": [
          {
            "text": "Definition: https://snomed.info/id/82991003"
          }
        ]
      },
      "request": {
        "method": "POST",
        "url": "Observation"
      }
    },
    {
      "fullUrl": "urn:uuid:5a4b7415-c6fb-46d7-85b2-fa90923648c9",
      "resource": {
        "resourceType": "Observation",
        "id": "5a4b7415-c6fb-46d7-85b2-fa90923648c9",
        "status": "final",
        "category": [
          {
            "coding": [
              {
                "system": "http://terminology.hl7.org/CodeSystem/observation-category",
                "code": "exam",
                "display": "Exam"
              }
            ],
            "text": "Exam"
          }
        ],
        "code": {
          "coding": [
            {
              "system": "http://snomed.info/sct",
              "code": "89757007",
              "display": "Macular rash"
            }
          ],
          "text": "Rash"
        },
        "subject": {
          "reference": "Patient/d23e9d70-02b1-4c5e-b38a-f80a9c1c1db4"
        },
        "encounter": {
          "reference": "Encounter/758b7e7a-fcc2-408e-9bd1-8cbc9ea11fa5"
        },
        "effectivePeriod": {
          "start": "2025-10-16"
        },
        "valueBoolean": true,
        "note": [
          {
            "text": "Definition: https://snomed.info/id/89757007"
          }
        ]
      },
      "request": {
        "method": "POST",
        "url": "Observation"
      }
    },
    {
      "fullUrl": "urn:uuid:3353d30b-1493-412b-99d7-2d99f5d841d3",
      "resource": {
        "resourceType": "Observation",
        "id": "3353d30b-1493-412b-99d7-2d99f5d841d3",
        "status": "final",
        "category": [
          {
            "coding": [
              {
                "system": "http://terminology.hl7.org/CodeSystem/observation-category",
                "code": "vital-signs",
                "display": "Vital Signs"
              }
            ],
            "text": "Vital Signs"
          }
        ],
        "code": {
          "coding": [
            {
              "system": "http://loinc.org",
              "code": "8310-5",
              "display": "Body temperature"
            }
          ],
          "text": "temperature"
        },
        "subject": {
          "reference": "Patient/d23e9d70-02b1-4c5e-b38a-f80a9c1c1db4"
        },
        "encounter": {
          "reference": "Encounter/758b7e7a-fcc2-408e-9bd1-8cbc9ea11fa5"
        },
        "effectiveDateTime": "2025-10-16",
        "valueQuantity": {
          "value": 39.5,
          "unit": "°C",
          "system": "http://unitsofmeasure.org",
          "code": "°C"
        },
        "interpretation": [
          {
            "coding": [
              {
                "system": "http://terminology.hl7.org/CodeSystem/v3-ObservationInterpretation",
                "code": "A",
                "display": "Abnormal"
              }
            ],
            "text": "Abnormal"
          }
        ]
      },
      "request": {
        "method": "POST",
        "url": "Observation"
      }
    },
    {
      "fullUrl": "urn:uuid:15e81d27-a8cd-4431-b276-4c0fd13949de",
      "resource": {
        "resourceType": "List",
        "id": "15e81d27-a8cd-4431-b276-4c0fd13949de",
        "contained": [
          {
            "resourceType": "FamilyMemberHistory",
            "id": "fmh-1",
            "status": "completed",
            "patient": {
              "reference": "Patient/d23e9d70-02b1-4c5e-b38a-f80a9c1c1db4"
            },
            "relationship": {
              "coding": [
                {
                  "system": "http://snomed.info/sct",
                  "code": "72705000",
                  "display": "Mother"
                }
              ]
            },
            "deceasedBoolean": false,
            "condition": [
              {
                "code": {
                  "coding": [
                    {
                      "system": "http://snomed.info/sct",
                      "code": "69896004",
                      "display": "Rheumatoid arthritis"
                    }
                  ]
                }
              }
            ]
          }
        ],
        "status": "current",
        "mode": "snapshot",
        "code": {
          "coding": [
            {
              "system": "http://loinc.org",
              "code": "8670-2",
              "display": "History of family member diseases"
            }
          ]
        },
        "subject": [
          {
            "reference": "Patient/d23e9d70-02b1-4c5e-b38a-f80a9c1c1db4"
          }
        ],
        "note": [
          {
            "text": "Family history of autoimmunity"
          }
        ],
        "entry": [
          {
            "item": {
              "reference": "#fmh-1"
            }
          }
        ]
      },
      "request": {
        "method": "POST",
        "url": "FamilyMemberHistory"
      }
    }
  ]
}