{
  "resourceType": "Bundle",
  "type": "transaction",
  "entry": [
    {
      "fullUrl": "urn:uuid:2e37a601-5c8c-4943-91ed-f264485e1d0c",
      "resource": {
        "resourceType": "Patient",
        "id": "2e37a601-5c8c-4943-91ed-f264485e1d0c",
        "name": [
          {
            "family": "Sokolov",
            "given": [
              "Ivan"
            ]
          }
        ],
        "gender": "male",
        "birthDate": "1999-01-01",
        "address": [
          {}
        ]
      },
      "request": {
        "method": "POST",
        "url": "Patient"
      }
    },
    {
      "fullUrl": "urn:uuid:8156947d-9caa-4951-be17-a0eca15829f5",
      "resource": {
        "resourceType": "Encounter",
        "id": "8156947d-9caa-4951-be17-a0eca15829f5",
        "identifier": [
          {
            "use": "temp",
            "value": "Encounter_Ivan Sokolov_20251022152209"
          }
        ],
        "status": "completed",
        "priority": {
          "coding": [
            {
              "system": "http://snomed.info/sct",
              "code": "17621005",
              "display": "Normal"
            }
          ]
        },
        "type": [
          {
            "coding": [
              {
                "system": "http://snomed.info/sct",
                "code": "11429006",
                "display": "Consultation"
              }
            ]
          }
        ],
        "subject": {
          "reference": "Patient/2e37a601-5c8c-4943-91ed-f264485e1d0c",
          "display": "Ivan Sokolov"
        },
        "reason": [
          {
            "value": [
              {
                "concept": {
                  "text": "recurring episodes of high fever, sore throat, and a diffuse rash"
                }
              }
            ]
          }
        ]
      },
      "request": {
        "method": "POST",
        "url": "Encounter"
      }
    },
    {
      "fullUrl": "urn:uuid:93e7766e-2fc8-4b65-82d4-e14962277d31",
      "resource": {
        "resourceType": "Observation",
        "id": "93e7766e-2fc8-4b65-82d4-e14962277d31",
        "status": "final",
        "category": [
          {
            "coding": [
              {
                "system": "http://terminology.hl7.org/CodeSystem/observation-category",
                "code": "laboratory",
                "display": "Laboratory"
              }
            ],
            "text": "Laboratory"
          }
        ],
        "code": {
          "coding": [
            {
              "system": "http://loinc.org",
              "code": "53048-5",
              "display": "Ferritin Fld-mCnc"
            }
          ],
          "text": "Ferritin"
        },
        "subject": {
          "reference": "Patient/2e37a601-5c8c-4943-91ed-f264485e1d0c"
        },
        "encounter": {
          "reference": "Encounter/8156947d-9caa-4951-be17-a0eca15829f5"
        },
        "effectiveDateTime": "2025-10-16",
        "valueQuantity": {
          "value": 2800.0,
          "unit": "ng/mL",
          "system": "http://unitsofmeasure.org",
          "code": "ng/mL"
        },
        "interpretation": [
          {
            "coding": [
              {
                "system": "http://terminology.hl7.org/CodeSystem/v3-ObservationInterpretation",
                "code": "H",
                "display": "High"
              }
            ]
          }
        ],
        "note": [
          {
            "text": "Definition: https://loinc.org/53048-5/"
          }
        ]
      },
      "request": {
        "method": "POST",
        "url": "Observation"
      }
    },
    {
      "fullUrl": "urn:uuid:69d85cac-31d9-4a3a-b41d-6def2cae5275",
      "resource": {
        "resourceType": "Observation",
        "id": "69d85cac-31d9-4a3a-b41d-6def2cae5275",
        "status": "final",
        "category": [
          {
            "coding": [
              {
                "system": "http://terminology.hl7.org/CodeSystem/observation-category",
                "code": "laboratory",
                "display": "Laboratory"
              }
            ],
            "text": "Laboratory"
          }
        ],
        "code": {
          "coding": [
            {
              "system": "http://loinc.org",
              "code": "93005-7",
              "display": "Rapid alt hand move - L+R mean Score"
            }
          ],
          "text": "ALT"
        },
        "subject": {
          "reference": "Patient/2e37a601-5c8c-4943-91ed-f264485e1d0c"
        },
        "encounter": {
          "reference": "Encounter/8156947d-9caa-4951-be17-a0eca15829f5"
        },
        "effectiveDateTime": "2025-10-16",
        "interpretation": [
          {
            "coding": [
              {
                "system": "http://terminology.hl7.org/CodeSystem/v3-ObservationInterpretation",
                "code": "A",
                "display": "Abnormal"
              }
            ]
          }
        ],
        "note": [
          {
            "text": "Definition: https://loinc.org/93005-7/"
          }
        ]
      },
      "request": {
        "method": "POST",
        "url": "Observation"
      }
    },
    {
      "fullUrl": "urn:uuid:000885b1-78de-4f6d-93c7-9e4f50652db5",
      "resource": {
        "resourceType": "Observation",
        "id": "000885b1-78de-4f6d-93c7-9e4f50652db5",
        "status": "final",
        "category": [
          {
            "coding": [
              {
                "system": "http://terminology.hl7.org/CodeSystem/observation-category",
                "code": "laboratory",
                "display": "Laboratory"
              }
            ],
            "text": "Laboratory"
          }
        ],
        "code": {
          "coding": [
            {
              "system": "http://loinc.org",
              "code": "102116-1",
              "display": "ESR1 gene mutation panel"
            }
          ],
          "text": "ESR"
        },
        "subject": {
          "reference": "Patient/2e37a601-5c8c-4943-91ed-f264485e1d0c"
        },
        "encounter": {
          "reference": "Encounter/8156947d-9caa-4951-be17-a0eca15829f5"
        },
        "effectiveDateTime": "2025-10-16",
        "valueQuantity": {
          "value": 80.0,
          "unit": "mm/hr",
          "system": "http://unitsofmeasure.org",
          "code": "mm/hr"
        },
        "interpretation": [
          {
            "coding": [
              {
                "system": "http://terminology.hl7.org/CodeSystem/v3-ObservationInterpretation",
                "code": "H",
                "display": "High"
              }
            ]
          }
        ],
        "note": [
          {
            "text": "Definition: https://loinc.org/102116-1/"
          }
        ]
      },
      "request": {
        "method": "POST",
        "url": "Observation"
      }
    },
    {
      "fullUrl": "urn:uuid:86035b69-00b7-401f-a0ec-a984671dd130",
      "resource": {
        "resourceType": "Observation",
        "id": "86035b69-00b7-401f-a0ec-a984671dd130",
        "status": "final",
        "category": [
          {
            "coding": [
              {
                "system": "http://terminology.hl7.org/CodeSystem/observation-category",
                "code": "exam",
                "display": "Exam"
              }
            ],
            "text": "Exam"
          }
        ],
        "code": {
          "coding": [
            {
              "system": "http://snomed.info/sct",
              "code": "386661006",
              "display": "Fever"
            }
          ],
          "text": "Fever"
        },
        "subject": {
          "reference": "Patient/2e37a601-5c8c-4943-91ed-f264485e1d0c"
        },
        "encounter": {
          "reference": "Encounter/8156947d-9caa-4951-be17-a0eca15829f5"
        },
        "effectivePeriod": {
          "start": "2025-10-16"
        },
        "valueBoolean": true,
        "interpretation": [
          {
            "coding": [
              {
                "system": "http://terminology.hl7.org/CodeSystem/v3-ObservationInterpretation",
                "code": "H",
                "display": "High"
              }
            ],
            "text": "High"
          }
        ],
        "note": [
          {
            "text": "Definition: https://snomed.info/id/386661006"
          }
        ]
      },
      "request": {
        "method": "POST",
        "url": "Observation"
      }
    },
    {
      "fullUrl": "urn:uuid:fe217bb5-308c-4da6-a9ce-0ba64e519f65",
      "resource": {
        "resourceType": "Observation",
        "id": "fe217bb5-308c-4da6-a9ce-0ba64e519f65",
        "status": "final",
        "category": [
          {
            "coding": [
              {
                "system": "http://terminology.hl7.org/CodeSystem/observation-category",
                "code": "exam",
                "display": "Exam"
              }
            ],
            "text": "Exam"
          }
        ],
        "code": {
          "coding": [
            {
              "system": "http://snomed.info/sct",
              "code": "267102003",
              "display": "Sore throat"
            }
          ],
          "text": "Sore throat"
        },
        "subject": {
          "reference": "Patient/2e37a601-5c8c-4943-91ed-f264485e1d0c"
        },
        "encounter": {
          "reference": "Encounter/8156947d-9caa-4951-be17-a0eca15829f5"
        },
        "effectivePeriod": {
          "start": "2025-10-16"
        },
        "valueBoolean": true,
        "note": [
          {
            "text": "Definition: https://snomed.info/id/267102003"
          }
        ]
      },
      "request": {
        "method": "POST",
        "url": "Observation"
      }
    },
    {
      "fullUrl": "urn:uuid:ad3f6bfd-d196-4d4b-9cd9-2493ea71f8d5",
      "resource": {
        "resourceType": "Observation",
        "id": "ad3f6bfd-d196-4d4b-9cd9-2493ea71f8d5",
        "status": "final",
        "category": [
          {
            "coding": [
              {
                "system": "http://terminology.hl7.org/CodeSystem/observation-category",
                "code": "exam",
                "display": "Exam"
              }
            ],
            "text": "Exam"
          }
        ],
        "code": {
          "coding": [
            {
              "system": "http://snomed.info/sct",
              "code": "725119006",
              "display": "Generalized rash"
            }
          ],
          "text": "Diffuse rash"
        },
        "subject": {
          "reference": "Patient/2e37a601-5c8c-4943-91ed-f264485e1d0c"
        },
        "encounter": {
          "reference": "Encounter/8156947d-9caa-4951-be17-a0eca15829f5"
        },
        "effectivePeriod": {
          "start": "2025-10-16"
        },
        "valueBoolean": true,
        "note": [
          {
            "text": "Definition: https://snomed.info/id/725119006"
          }
        ]
      },
      "request": {
        "method": "POST",
        "url": "Observation"
      }
    },
    {
      "fullUrl": "urn:uuid:dc4e3553-69bd-49ab-af19-76638bb486df",
      "resource": {
        "resourceType": "Observation",
        "id": "dc4e3553-69bd-49ab-af19-76638bb486df",
        "status": "final",
        "category": [
          {
            "coding": [
              {
                "system": "http://terminology.hl7.org/CodeSystem/observation-category",
                "code": "exam",
                "display": "Exam"
              }
            ],
            "text": "Exam"
          }
        ],
        "code": {
          "coding": [
            {
              "system": "http://snomed.info/sct",
              "code": "816160009",
              "display": "Weight loss"
            }
          ],
          "text": "Weight loss"
        },
        "subject": {
          "reference": "Patient/2e37a601-5c8c-4943-91ed-f264485e1d0c"
        },
        "encounter": {
          "reference": "Encounter/8156947d-9caa-4951-be17-a0eca15829f5"
        },
        "effectivePeriod": {
          "start": "2025-10-16"
        },
        "valueBoolean": true,
        "note": [
          {
            "text": "Definition: https://snomed.info/id/816160009"
          }
        ]
      },
      "request": {
        "method": "POST",
        "url": "Observation"
      }
    },
    {
      "fullUrl": "urn:uuid:8beafed3-6b3e-40a8-857e-3a8474e741ad",
      "resource": {
        "resourceType": "Observation",
        "id": "8beafed3-6b3e-40a8-857e-3a8474e741ad",
        "status": "final",
        "category": [
          {
            "coding": [
              {
                "system": "http://terminology.hl7.org/CodeSystem/observation-category",
                "code": "exam",
                "display": "Exam"
              }
            ],
            "text": "Exam"
          }
        ],
        "code": {
          "coding": [
            {
              "system": "http://snomed.info/sct",
              "code": "84229001",
              "display": "Fatigue"
            }
          ],
          "text": "Fatigue"
        },
        "subject": {
          "reference": "Patient/2e37a601-5c8c-4943-91ed-f264485e1d0c"
        },
        "encounter": {
          "reference": "Encounter/8156947d-9caa-4951-be17-a0eca15829f5"
        },
        "effectivePeriod": {
          "start": "2025-10-16"
        },
        "valueBoolean": true,
        "note": [
          {
            "text": "Definition: https://snomed.info/id/84229001"
          }
        ]
      },
      "request": {
        "method": "POST",
        "url": "Observation"
      }
    },
    {
      "fullUrl": "urn:uuid:5d389c91-97fb-4cff-86ed-91a53cbd03e4",
      "resource": {
        "resourceType": "Observation",
        "id": "5d389c91-97fb-4cff-86ed-91a53cbd03e4",
        "status": "final",
        "category": [
          {
            "coding": [
              {
                "system": "http://terminology.hl7.org/CodeSystem/observation-category",
                "code": "vital-signs",
                "display": "Vital Signs"
              }
            ],
            "text": "Vital Signs"
          }
        ],
        "code": {
          "coding": [
            {
              "system": "http://loinc.org",
              "code": "8310-5",
              "display": "Body temperature"
            }
          ],
          "text": "Body temperature"
        },
        "subject": {
          "reference": "Patient/2e37a601-5c8c-4943-91ed-f264485e1d0c"
        },
        "encounter": {
          "reference": "Encounter/8156947d-9caa-4951-be17-a0eca15829f5"
        },
        "effectiveDateTime": "2025-10-16",
        "valueQuantity": {
          "value": 40.0,
          "unit": "°C",
          "system": "http://unitsofmeasure.org",
          "code": "°C"
        },
        "interpretation": [
          {
            "coding": [
              {
                "system": "http://terminology.hl7.org/CodeSystem/v3-ObservationInterpretation",
                "code": "H",
                "display": "High"
              }
            ],
            "text": "High"
          }
        ]
      },
      "request": {
        "method": "POST",
        "url": "Observation"
      }
    }
  ]
}