{
  "resourceType": "Bundle",
  "type": "transaction",
  "entry": [
    {
      "fullUrl": "urn:uuid:8604a33f-689e-421f-a30f-30bab28283a0",
      "resource": {
        "resourceType": "Patient",
        "id": "8604a33f-689e-421f-a30f-30bab28283a0",
        "name": [
          {
            "family": "Tarasova",
            "given": [
              "Yulia"
            ]
          }
        ],
        "gender": "female",
        "birthDate": "1993-01-01",
        "address": [
          {}
        ]
      },
      "request": {
        "method": "POST",
        "url": "Patient"
      }
    },
    {
      "fullUrl": "urn:uuid:26c453f1-7e24-4c03-b35f-8981654f234c",
      "resource": {
        "resourceType": "Encounter",
        "id": "26c453f1-7e24-4c03-b35f-8981654f234c",
        "identifier": [
          {
            "use": "temp",
            "value": "Encounter_Yulia Tarasova_20251020131646"
          }
        ],
        "status": "completed",
        "priority": {
          "coding": [
            {
              "system": "http://snomed.info/sct",
              "code": "17621005",
              "display": "Normal"
            }
          ]
        },
        "type": [
          {
            "coding": [
              {
                "system": "http://snomed.info/sct",
                "code": "11429006",
                "display": "Consultation"
              }
            ]
          }
        ],
        "subject": {
          "reference": "Patient/8604a33f-689e-421f-a30f-30bab28283a0",
          "display": "Yulia Tarasova"
        },
        "reason": [
          {
            "value": [
              {
                "concept": {
                  "text": "intermittent high fevers, sore throat, and muscle aches"
                }
              }
            ]
          }
        ]
      },
      "request": {
        "method": "POST",
        "url": "Encounter"
      }
    },
    {
      "fullUrl": "urn:uuid:96987fdf-e6b0-400e-88e1-9eb688b30445",
      "resource": {
        "resourceType": "Observation",
        "id": "96987fdf-e6b0-400e-88e1-9eb688b30445",
        "status": "final",
        "category": [
          {
            "coding": [
              {
                "system": "http://terminology.hl7.org/CodeSystem/observation-category",
                "code": "laboratory",
                "display": "Laboratory"
              }
            ],
            "text": "Laboratory"
          }
        ],
        "code": {
          "coding": [
            {
              "system": "http://loinc.org",
              "code": "unknown",
              "display": "Leukocytosis"
            }
          ],
          "text": "Leukocytosis"
        },
        "subject": {
          "reference": "Patient/8604a33f-689e-421f-a30f-30bab28283a0"
        },
        "encounter": {
          "reference": "Encounter/26c453f1-7e24-4c03-b35f-8981654f234c"
        },
        "effectiveDateTime": "2025-10-16",
        "interpretation": [
          {
            "coding": [
              {
                "system": "http://terminology.hl7.org/CodeSystem/v3-ObservationInterpretation",
                "code": "A",
                "display": "Abnormal"
              }
            ]
          }
        ]
      },
      "request": {
        "method": "POST",
        "url": "Observation"
      }
    },
    {
      "fullUrl": "urn:uuid:b573f477-199e-4df3-8339-b045a81e03c5",
      "resource": {
        "resourceType": "Observation",
        "id": "b573f477-199e-4df3-8339-b045a81e03c5",
        "status": "final",
        "category": [
          {
            "coding": [
              {
                "system": "http://terminology.hl7.org/CodeSystem/observation-category",
                "code": "laboratory",
                "display": "Laboratory"
              }
            ],
            "text": "Laboratory"
          }
        ],
        "code": {
          "coding": [
            {
              "system": "http://loinc.org",
              "code": "93005-7",
              "display": "Rapid alt hand move - L+R mean Score"
            }
          ],
          "text": "ALT"
        },
        "subject": {
          "reference": "Patient/8604a33f-689e-421f-a30f-30bab28283a0"
        },
        "encounter": {
          "reference": "Encounter/26c453f1-7e24-4c03-b35f-8981654f234c"
        },
        "effectiveDateTime": "2025-10-16",
        "interpretation": [
          {
            "coding": [
              {
                "system": "http://terminology.hl7.org/CodeSystem/v3-ObservationInterpretation",
                "code": "A",
                "display": "Abnormal"
              }
            ]
          }
        ],
        "note": [
          {
            "text": "Definition: https://loinc.org/93005-7/"
          }
        ]
      },
      "request": {
        "method": "POST",
        "url": "Observation"
      }
    },
    {
      "fullUrl": "urn:uuid:344611a7-13f8-43e3-8fb5-62fcc7a34e7c",
      "resource": {
        "resourceType": "Observation",
        "id": "344611a7-13f8-43e3-8fb5-62fcc7a34e7c",
        "status": "final",
        "category": [
          {
            "coding": [
              {
                "system": "http://terminology.hl7.org/CodeSystem/observation-category",
                "code": "laboratory",
                "display": "Laboratory"
              }
            ],
            "text": "Laboratory"
          }
        ],
        "code": {
          "coding": [
            {
              "system": "http://loinc.org",
              "code": "1917-4",
              "display": "AST Amn-cCnc"
            }
          ],
          "text": "AST"
        },
        "subject": {
          "reference": "Patient/8604a33f-689e-421f-a30f-30bab28283a0"
        },
        "encounter": {
          "reference": "Encounter/26c453f1-7e24-4c03-b35f-8981654f234c"
        },
        "effectiveDateTime": "2025-10-16",
        "interpretation": [
          {
            "coding": [
              {
                "system": "http://terminology.hl7.org/CodeSystem/v3-ObservationInterpretation",
                "code": "A",
                "display": "Abnormal"
              }
            ]
          }
        ],
        "note": [
          {
            "text": "Definition: https://loinc.org/1917-4/"
          }
        ]
      },
      "request": {
        "method": "POST",
        "url": "Observation"
      }
    },
    {
      "fullUrl": "urn:uuid:dcfa88ed-bd95-4dbe-8668-769eb4f11d1e",
      "resource": {
        "resourceType": "Observation",
        "id": "dcfa88ed-bd95-4dbe-8668-769eb4f11d1e",
        "status": "final",
        "category": [
          {
            "coding": [
              {
                "system": "http://terminology.hl7.org/CodeSystem/observation-category",
                "code": "laboratory",
                "display": "Laboratory"
              }
            ],
            "text": "Laboratory"
          }
        ],
        "code": {
          "coding": [
            {
              "system": "http://loinc.org",
              "code": "102116-1",
              "display": "ESR1 gene mutation panel"
            }
          ],
          "text": "ESR"
        },
        "subject": {
          "reference": "Patient/8604a33f-689e-421f-a30f-30bab28283a0"
        },
        "encounter": {
          "reference": "Encounter/26c453f1-7e24-4c03-b35f-8981654f234c"
        },
        "effectiveDateTime": "2025-10-16",
        "valueQuantity": {
          "value": 90.0,
          "unit": "mm/hr",
          "system": "http://unitsofmeasure.org",
          "code": "mm/hr"
        },
        "interpretation": [
          {
            "coding": [
              {
                "system": "http://terminology.hl7.org/CodeSystem/v3-ObservationInterpretation",
                "code": "A",
                "display": "Abnormal"
              }
            ]
          }
        ],
        "note": [
          {
            "text": "Definition: https://loinc.org/102116-1/"
          }
        ]
      },
      "request": {
        "method": "POST",
        "url": "Observation"
      }
    },
    {
      "fullUrl": "urn:uuid:dcb18964-a442-4232-85f5-27ad9c90745a",
      "resource": {
        "resourceType": "Observation",
        "id": "dcb18964-a442-4232-85f5-27ad9c90745a",
        "status": "final",
        "category": [
          {
            "coding": [
              {
                "system": "http://terminology.hl7.org/CodeSystem/observation-category",
                "code": "laboratory",
                "display": "Laboratory"
              }
            ],
            "text": "Laboratory"
          }
        ],
        "code": {
          "coding": [
            {
              "system": "http://loinc.org",
              "code": "53048-5",
              "display": "Ferritin Fld-mCnc"
            }
          ],
          "text": "Ferritin"
        },
        "subject": {
          "reference": "Patient/8604a33f-689e-421f-a30f-30bab28283a0"
        },
        "encounter": {
          "reference": "Encounter/26c453f1-7e24-4c03-b35f-8981654f234c"
        },
        "effectiveDateTime": "2025-10-16",
        "valueQuantity": {
          "value": 3000.0,
          "unit": "ng/mL",
          "system": "http://unitsofmeasure.org",
          "code": "ng/mL"
        },
        "interpretation": [
          {
            "coding": [
              {
                "system": "http://terminology.hl7.org/CodeSystem/v3-ObservationInterpretation",
                "code": "A",
                "display": "Abnormal"
              }
            ]
          }
        ],
        "note": [
          {
            "text": "Definition: https://loinc.org/53048-5/"
          }
        ]
      },
      "request": {
        "method": "POST",
        "url": "Observation"
      }
    },
    {
      "fullUrl": "urn:uuid:f0aac4dc-2f08-41b9-820a-114e9b095c8d",
      "resource": {
        "resourceType": "Observation",
        "id": "f0aac4dc-2f08-41b9-820a-114e9b095c8d",
        "status": "final",
        "category": [
          {
            "coding": [
              {
                "system": "http://terminology.hl7.org/CodeSystem/observation-category",
                "code": "exam",
                "display": "Exam"
              }
            ],
            "text": "Exam"
          }
        ],
        "code": {
          "coding": [
            {
              "system": "http://snomed.info/sct",
              "code": "386661006",
              "display": "Fever"
            }
          ],
          "text": "Fever"
        },
        "subject": {
          "reference": "Patient/8604a33f-689e-421f-a30f-30bab28283a0"
        },
        "encounter": {
          "reference": "Encounter/26c453f1-7e24-4c03-b35f-8981654f234c"
        },
        "effectivePeriod": {
          "start": "2025-10-16"
        },
        "valueBoolean": true,
        "interpretation": [
          {
            "coding": [
              {
                "system": "http://terminology.hl7.org/CodeSystem/v3-ObservationInterpretation",
                "code": "A",
                "display": "Abnormal"
              }
            ],
            "text": "Abnormal"
          }
        ],
        "note": [
          {
            "text": "Definition: https://snomed.info/id/386661006"
          }
        ]
      },
      "request": {
        "method": "POST",
        "url": "Observation"
      }
    },
    {
      "fullUrl": "urn:uuid:8eda2b63-106c-440c-922f-a0618827bc03",
      "resource": {
        "resourceType": "Observation",
        "id": "8eda2b63-106c-440c-922f-a0618827bc03",
        "status": "final",
        "category": [
          {
            "coding": [
              {
                "system": "http://terminology.hl7.org/CodeSystem/observation-category",
                "code": "exam",
                "display": "Exam"
              }
            ],
            "text": "Exam"
          }
        ],
        "code": {
          "coding": [
            {
              "system": "http://snomed.info/sct",
              "code": "267102003",
              "display": "Sore throat"
            }
          ],
          "text": "Sore throat"
        },
        "subject": {
          "reference": "Patient/8604a33f-689e-421f-a30f-30bab28283a0"
        },
        "encounter": {
          "reference": "Encounter/26c453f1-7e24-4c03-b35f-8981654f234c"
        },
        "effectivePeriod": {
          "start": "2025-10-16"
        },
        "valueBoolean": true,
        "note": [
          {
            "text": "Definition: https://snomed.info/id/267102003"
          }
        ]
      },
      "request": {
        "method": "POST",
        "url": "Observation"
      }
    },
    {
      "fullUrl": "urn:uuid:171c69c2-15c0-473e-8ac3-ee04302abe38",
      "resource": {
        "resourceType": "Observation",
        "id": "171c69c2-15c0-473e-8ac3-ee04302abe38",
        "status": "final",
        "category": [
          {
            "coding": [
              {
                "system": "http://terminology.hl7.org/CodeSystem/observation-category",
                "code": "exam",
                "display": "Exam"
              }
            ],
            "text": "Exam"
          }
        ],
        "code": {
          "coding": [
            {
              "system": "http://snomed.info/sct",
              "code": "82991003",
              "display": "Generalized aches and pains"
            }
          ],
          "text": "Muscle aches"
        },
        "subject": {
          "reference": "Patient/8604a33f-689e-421f-a30f-30bab28283a0"
        },
        "encounter": {
          "reference": "Encounter/26c453f1-7e24-4c03-b35f-8981654f234c"
        },
        "effectivePeriod": {
          "start": "2025-10-16"
        },
        "valueBoolean": true,
        "note": [
          {
            "text": "Definition: https://snomed.info/id/82991003"
          }
        ]
      },
      "request": {
        "method": "POST",
        "url": "Observation"
      }
    },
    {
      "fullUrl": "urn:uuid:9dbcd43e-433d-41be-bfcb-7f4f28792f45",
      "resource": {
        "resourceType": "Observation",
        "id": "9dbcd43e-433d-41be-bfcb-7f4f28792f45",
        "status": "final",
        "category": [
          {
            "coding": [
              {
                "system": "http://terminology.hl7.org/CodeSystem/observation-category",
                "code": "exam",
                "display": "Exam"
              }
            ],
            "text": "Exam"
          }
        ],
        "code": {
          "coding": [
            {
              "system": "http://snomed.info/sct",
              "code": "89757007",
              "display": "Macular rash"
            }
          ],
          "text": "Rash"
        },
        "subject": {
          "reference": "Patient/8604a33f-689e-421f-a30f-30bab28283a0"
        },
        "encounter": {
          "reference": "Encounter/26c453f1-7e24-4c03-b35f-8981654f234c"
        },
        "effectivePeriod": {
          "start": "2025-10-16"
        },
        "valueBoolean": true,
        "note": [
          {
            "text": "Definition: https://snomed.info/id/89757007"
          }
        ]
      },
      "request": {
        "method": "POST",
        "url": "Observation"
      }
    },
    {
      "fullUrl": "urn:uuid:bf1fe9b4-779d-4360-9f74-78d6e2a23ba2",
      "resource": {
        "resourceType": "Observation",
        "id": "bf1fe9b4-779d-4360-9f74-78d6e2a23ba2",
        "status": "final",
        "category": [
          {
            "coding": [
              {
                "system": "http://terminology.hl7.org/CodeSystem/observation-category",
                "code": "vital-signs",
                "display": "Vital Signs"
              }
            ],
            "text": "Vital Signs"
          }
        ],
        "code": {
          "coding": [
            {
              "system": "http://loinc.org",
              "code": "8310-5",
              "display": "Body temperature"
            }
          ],
          "text": "temperature"
        },
        "subject": {
          "reference": "Patient/8604a33f-689e-421f-a30f-30bab28283a0"
        },
        "encounter": {
          "reference": "Encounter/26c453f1-7e24-4c03-b35f-8981654f234c"
        },
        "effectiveDateTime": "2025-10-16",
        "valueQuantity": {
          "value": 39.5,
          "unit": "°C",
          "system": "http://unitsofmeasure.org",
          "code": "°C"
        },
        "interpretation": [
          {
            "coding": [
              {
                "system": "http://terminology.hl7.org/CodeSystem/v3-ObservationInterpretation",
                "code": "A",
                "display": "Abnormal"
              }
            ],
            "text": "Abnormal"
          }
        ]
      },
      "request": {
        "method": "POST",
        "url": "Observation"
      }
    },
    {
      "fullUrl": "urn:uuid:7099c2a2-ca27-431e-bd94-7a0e6f61aa88",
      "resource": {
        "resourceType": "List",
        "id": "7099c2a2-ca27-431e-bd94-7a0e6f61aa88",
        "contained": [
          {
            "resourceType": "FamilyMemberHistory",
            "id": "fmh-1",
            "status": "completed",
            "patient": {
              "reference": "Patient/8604a33f-689e-421f-a30f-30bab28283a0"
            },
            "relationship": {
              "coding": [
                {
                  "system": "http://snomed.info/sct",
                  "code": "72705000",
                  "display": "Mother"
                }
              ]
            },
            "deceasedBoolean": false,
            "condition": [
              {
                "code": {
                  "coding": [
                    {
                      "system": "http://snomed.info/sct",
                      "code": "69896004",
                      "display": "Rheumatoid arthritis"
                    }
                  ]
                }
              }
            ]
          }
        ],
        "status": "current",
        "mode": "snapshot",
        "code": {
          "coding": [
            {
              "system": "http://loinc.org",
              "code": "8670-2",
              "display": "History of family member diseases"
            }
          ]
        },
        "subject": [
          {
            "reference": "Patient/8604a33f-689e-421f-a30f-30bab28283a0"
          }
        ],
        "note": [
          {
            "text": "Family history of autoimmunity"
          }
        ],
        "entry": [
          {
            "item": {
              "reference": "#fmh-1"
            }
          }
        ]
      },
      "request": {
        "method": "POST",
        "url": "FamilyMemberHistory"
      }
    }
  ]
}