{
  "resourceType": "Bundle",
  "type": "transaction",
  "entry": [
    {
      "fullUrl": "urn:uuid:3b0c8a51-b65b-47a9-be58-13c58fb7b40f",
      "resource": {
        "resourceType": "Patient",
        "id": "3b0c8a51-b65b-47a9-be58-13c58fb7b40f",
        "name": [
          {
            "family": "D.",
            "given": [
              "Anna"
            ]
          }
        ],
        "gender": "female",
        "address": [
          {}
        ]
      },
      "request": {
        "method": "POST",
        "url": "Patient"
      }
    },
    {
      "fullUrl": "urn:uuid:eca33567-715e-4962-ab1a-b3a2a53b0f31",
      "resource": {
        "resourceType": "Encounter",
        "id": "eca33567-715e-4962-ab1a-b3a2a53b0f31",
        "identifier": [
          {
            "use": "temp",
            "value": "Encounter_Anna D._20251017122152"
          }
        ],
        "status": "completed",
        "priority": {
          "coding": [
            {
              "system": "http://snomed.info/sct",
              "code": "17621005",
              "display": "Normal"
            }
          ]
        },
        "type": [
          {
            "coding": [
              {
                "system": "http://snomed.info/sct",
                "code": "11429006",
                "display": "Consultation"
              }
            ]
          }
        ],
        "subject": {
          "reference": "Patient/3b0c8a51-b65b-47a9-be58-13c58fb7b40f",
          "display": "Anna D."
        },
        "reason": [
          {
            "value": [
              {
                "concept": {
                  "text": "daily low-grade fevers and intermittent joint pain"
                }
              }
            ]
          }
        ]
      },
      "request": {
        "method": "POST",
        "url": "Encounter"
      }
    },
    {
      "fullUrl": "urn:uuid:d3272dcf-1c58-4ef1-97ed-6c6e44fd84cf",
      "resource": {
        "resourceType": "Observation",
        "id": "d3272dcf-1c58-4ef1-97ed-6c6e44fd84cf",
        "status": "final",
        "category": [
          {
            "coding": [
              {
                "system": "http://terminology.hl7.org/CodeSystem/observation-category",
                "code": "laboratory",
                "display": "Laboratory"
              }
            ],
            "text": "Laboratory"
          }
        ],
        "code": {
          "coding": [
            {
              "system": "http://loinc.org",
              "code": "26464-8",
              "display": "WBC # Bld"
            }
          ],
          "text": "White Blood Cell Count"
        },
        "subject": {
          "reference": "Patient/3b0c8a51-b65b-47a9-be58-13c58fb7b40f"
        },
        "encounter": {
          "reference": "Encounter/eca33567-715e-4962-ab1a-b3a2a53b0f31"
        },
        "effectiveDateTime": "2025-10-17T10:21:53.107973Z",
        "valueQuantity": {
          "value": 13.0,
          "unit": "10^9/L",
          "system": "http://unitsofmeasure.org",
          "code": "10^9/L"
        },
        "interpretation": [
          {
            "coding": [
              {
                "system": "http://terminology.hl7.org/CodeSystem/v3-ObservationInterpretation",
                "code": "H",
                "display": "High"
              }
            ]
          }
        ],
        "note": [
          {
            "text": "Definition: https://loinc.org/26464-8/"
          }
        ]
      },
      "request": {
        "method": "POST",
        "url": "Observation"
      }
    },
    {
      "fullUrl": "urn:uuid:a2a27563-0938-4406-8b87-8a24fe1defe3",
      "resource": {
        "resourceType": "Observation",
        "id": "a2a27563-0938-4406-8b87-8a24fe1defe3",
        "status": "final",
        "category": [
          {
            "coding": [
              {
                "system": "http://terminology.hl7.org/CodeSystem/observation-category",
                "code": "laboratory",
                "display": "Laboratory"
              }
            ],
            "text": "Laboratory"
          }
        ],
        "code": {
          "coding": [
            {
              "system": "http://loinc.org",
              "code": "30341-2",
              "display": "Erythrocyte Sed Rat Bld"
            }
          ],
          "text": "Erythrocyte Sedimentation Rate"
        },
        "subject": {
          "reference": "Patient/3b0c8a51-b65b-47a9-be58-13c58fb7b40f"
        },
        "encounter": {
          "reference": "Encounter/eca33567-715e-4962-ab1a-b3a2a53b0f31"
        },
        "effectiveDateTime": "2025-10-17T10:21:53.312433Z",
        "valueQuantity": {
          "value": 55.0,
          "unit": "mm/hr",
          "system": "http://unitsofmeasure.org",
          "code": "mm/hr"
        },
        "interpretation": [
          {
            "coding": [
              {
                "system": "http://terminology.hl7.org/CodeSystem/v3-ObservationInterpretation",
                "code": "H",
                "display": "High"
              }
            ]
          }
        ],
        "note": [
          {
            "text": "Definition: https://loinc.org/30341-2/"
          }
        ]
      },
      "request": {
        "method": "POST",
        "url": "Observation"
      }
    },
    {
      "fullUrl": "urn:uuid:2edb75b5-3316-42de-9ae9-543f59add727",
      "resource": {
        "resourceType": "Observation",
        "id": "2edb75b5-3316-42de-9ae9-543f59add727",
        "status": "final",
        "category": [
          {
            "coding": [
              {
                "system": "http://terminology.hl7.org/CodeSystem/observation-category",
                "code": "laboratory",
                "display": "Laboratory"
              }
            ],
            "text": "Laboratory"
          }
        ],
        "code": {
          "coding": [
            {
              "system": "http://loinc.org",
              "code": "53048-5",
              "display": "Ferritin Fld-mCnc"
            }
          ],
          "text": "Ferritin"
        },
        "subject": {
          "reference": "Patient/3b0c8a51-b65b-47a9-be58-13c58fb7b40f"
        },
        "encounter": {
          "reference": "Encounter/eca33567-715e-4962-ab1a-b3a2a53b0f31"
        },
        "effectiveDateTime": "2025-10-17T10:21:53.527258Z",
        "valueQuantity": {
          "value": 800.0,
          "unit": "ng/mL",
          "system": "http://unitsofmeasure.org",
          "code": "ng/mL"
        },
        "interpretation": [
          {
            "coding": [
              {
                "system": "http://terminology.hl7.org/CodeSystem/v3-ObservationInterpretation",
                "code": "H",
                "display": "High"
              }
            ]
          }
        ],
        "note": [
          {
            "text": "Definition: https://loinc.org/53048-5/"
          }
        ]
      },
      "request": {
        "method": "POST",
        "url": "Observation"
      }
    },
    {
      "fullUrl": "urn:uuid:465b21e8-cd99-4a19-b8c8-9b414530a195",
      "resource": {
        "resourceType": "Observation",
        "id": "465b21e8-cd99-4a19-b8c8-9b414530a195",
        "status": "final",
        "category": [
          {
            "coding": [
              {
                "system": "http://terminology.hl7.org/CodeSystem/observation-category",
                "code": "laboratory",
                "display": "Laboratory"
              }
            ],
            "text": "Laboratory"
          }
        ],
        "code": {
          "coding": [
            {
              "system": "http://loinc.org",
              "code": "108020-9",
              "display": "ANA Msmt Ser"
            }
          ],
          "text": "Antinuclear Antibody"
        },
        "subject": {
          "reference": "Patient/3b0c8a51-b65b-47a9-be58-13c58fb7b40f"
        },
        "encounter": {
          "reference": "Encounter/eca33567-715e-4962-ab1a-b3a2a53b0f31"
        },
        "effectiveDateTime": "2025-10-17T10:21:53.732272Z",
        "interpretation": [
          {
            "coding": [
              {
                "system": "http://terminology.hl7.org/CodeSystem/v3-ObservationInterpretation",
                "code": "N",
                "display": "Normal"
              }
            ]
          }
        ],
        "note": [
          {
            "text": "Definition: https://loinc.org/108020-9/"
          }
        ]
      },
      "request": {
        "method": "POST",
        "url": "Observation"
      }
    },
    {
      "fullUrl": "urn:uuid:3aa432a9-7cc0-4959-adb2-9975f231c807",
      "resource": {
        "resourceType": "Observation",
        "id": "3aa432a9-7cc0-4959-adb2-9975f231c807",
        "status": "final",
        "category": [
          {
            "coding": [
              {
                "system": "http://terminology.hl7.org/CodeSystem/observation-category",
                "code": "laboratory",
                "display": "Laboratory"
              }
            ],
            "text": "Laboratory"
          }
        ],
        "code": {
          "coding": [
            {
              "system": "http://loinc.org",
              "code": "25746-9",
              "display": "Rheumatoid fact Titr Fld Shp Aggl"
            }
          ],
          "text": "Rheumatoid Factor"
        },
        "subject": {
          "reference": "Patient/3b0c8a51-b65b-47a9-be58-13c58fb7b40f"
        },
        "encounter": {
          "reference": "Encounter/eca33567-715e-4962-ab1a-b3a2a53b0f31"
        },
        "effectiveDateTime": "2025-10-17T10:21:53.858684Z",
        "interpretation": [
          {
            "coding": [
              {
                "system": "http://terminology.hl7.org/CodeSystem/v3-ObservationInterpretation",
                "code": "N",
                "display": "Normal"
              }
            ]
          }
        ],
        "note": [
          {
            "text": "Definition: https://loinc.org/25746-9/"
          }
        ]
      },
      "request": {
        "method": "POST",
        "url": "Observation"
      }
    },
    {
      "fullUrl": "urn:uuid:3acffe50-4d9f-4ca9-9757-1ae2bb26f136",
      "resource": {
        "resourceType": "Observation",
        "id": "3acffe50-4d9f-4ca9-9757-1ae2bb26f136",
        "status": "final",
        "category": [
          {
            "coding": [
              {
                "system": "http://terminology.hl7.org/CodeSystem/observation-category",
                "code": "laboratory",
                "display": "Laboratory"
              }
            ],
            "text": "Laboratory"
          }
        ],
        "code": {
          "coding": [
            {
              "system": "http://loinc.org",
              "code": "unknown",
              "display": "Liver Enzymes"
            }
          ],
          "text": "Liver Enzymes"
        },
        "subject": {
          "reference": "Patient/3b0c8a51-b65b-47a9-be58-13c58fb7b40f"
        },
        "encounter": {
          "reference": "Encounter/eca33567-715e-4962-ab1a-b3a2a53b0f31"
        },
        "effectiveDateTime": "2025-10-17T10:21:53.984498Z",
        "interpretation": [
          {
            "coding": [
              {
                "system": "http://terminology.hl7.org/CodeSystem/v3-ObservationInterpretation",
                "code": "A",
                "display": "Abnormal"
              }
            ]
          }
        ]
      },
      "request": {
        "method": "POST",
        "url": "Observation"
      }
    },
    {
      "fullUrl": "urn:uuid:11f6ff4a-fbba-418e-ac1d-791ac37bc576",
      "resource": {
        "resourceType": "Observation",
        "id": "11f6ff4a-fbba-418e-ac1d-791ac37bc576",
        "status": "final",
        "category": [
          {
            "coding": [
              {
                "system": "http://terminology.hl7.org/CodeSystem/observation-category",
                "code": "exam",
                "display": "Exam"
              }
            ],
            "text": "Exam"
          }
        ],
        "code": {
          "coding": [
            {
              "system": "http://snomed.info/sct",
              "code": "386661006",
              "display": "Fever"
            }
          ],
          "text": "Fever"
        },
        "subject": {
          "reference": "Patient/3b0c8a51-b65b-47a9-be58-13c58fb7b40f"
        },
        "encounter": {
          "reference": "Encounter/eca33567-715e-4962-ab1a-b3a2a53b0f31"
        },
        "effectivePeriod": {
          "start": "2025-10-17T10:21:55.569391Z"
        },
        "valueBoolean": true,
        "interpretation": [
          {
            "coding": [
              {
                "system": "http://terminology.hl7.org/CodeSystem/v3-ObservationInterpretation",
                "code": "A",
                "display": "Abnormal"
              }
            ],
            "text": "Abnormal"
          }
        ],
        "note": [
          {
            "text": "Definition: https://snomed.info/id/386661006"
          }
        ]
      },
      "request": {
        "method": "POST",
        "url": "Observation"
      }
    },
    {
      "fullUrl": "urn:uuid:0f899013-2a91-4b2d-aac9-3821226aae8a",
      "resource": {
        "resourceType": "Observation",
        "id": "0f899013-2a91-4b2d-aac9-3821226aae8a",
        "status": "final",
        "category": [
          {
            "coding": [
              {
                "system": "http://terminology.hl7.org/CodeSystem/observation-category",
                "code": "exam",
                "display": "Exam"
              }
            ],
            "text": "Exam"
          }
        ],
        "code": {
          "coding": [
            {
              "system": "http://snomed.info/sct",
              "code": "57676002",
              "display": "Joint pain"
            }
          ],
          "text": "Joint Pain"
        },
        "subject": {
          "reference": "Patient/3b0c8a51-b65b-47a9-be58-13c58fb7b40f"
        },
        "encounter": {
          "reference": "Encounter/eca33567-715e-4962-ab1a-b3a2a53b0f31"
        },
        "effectivePeriod": {
          "start": "2025-10-17T10:21:57.312077Z"
        },
        "valueBoolean": true,
        "interpretation": [
          {
            "coding": [
              {
                "system": "http://terminology.hl7.org/CodeSystem/v3-ObservationInterpretation",
                "code": "A",
                "display": "Abnormal"
              }
            ],
            "text": "Abnormal"
          }
        ],
        "note": [
          {
            "text": "Definition: https://snomed.info/id/57676002"
          }
        ]
      },
      "request": {
        "method": "POST",
        "url": "Observation"
      }
    },
    {
      "fullUrl": "urn:uuid:d45de049-c685-4829-a028-5e8319c67467",
      "resource": {
        "resourceType": "Observation",
        "id": "d45de049-c685-4829-a028-5e8319c67467",
        "status": "final",
        "category": [
          {
            "coding": [
              {
                "system": "http://terminology.hl7.org/CodeSystem/observation-category",
                "code": "exam",
                "display": "Exam"
              }
            ],
            "text": "Exam"
          }
        ],
        "code": {
          "coding": [
            {
              "system": "http://snomed.info/sct",
              "code": "89757007",
              "display": "Macular rash"
            }
          ],
          "text": "Rash"
        },
        "subject": {
          "reference": "Patient/3b0c8a51-b65b-47a9-be58-13c58fb7b40f"
        },
        "encounter": {
          "reference": "Encounter/eca33567-715e-4962-ab1a-b3a2a53b0f31"
        },
        "effectivePeriod": {
          "start": "2025-10-17T10:21:58.949257Z"
        },
        "valueBoolean": true,
        "interpretation": [
          {
            "coding": [
              {
                "system": "http://terminology.hl7.org/CodeSystem/v3-ObservationInterpretation",
                "code": "A",
                "display": "Abnormal"
              }
            ],
            "text": "Abnormal"
          }
        ],
        "note": [
          {
            "text": "Definition: https://snomed.info/id/89757007"
          }
        ]
      },
      "request": {
        "method": "POST",
        "url": "Observation"
      }
    },
    {
      "fullUrl": "urn:uuid:e26ca4ed-213c-4ac7-b29b-82e965d6d664",
      "resource": {
        "resourceType": "Observation",
        "id": "e26ca4ed-213c-4ac7-b29b-82e965d6d664",
        "status": "final",
        "category": [
          {
            "coding": [
              {
                "system": "http://terminology.hl7.org/CodeSystem/observation-category",
                "code": "exam",
                "display": "Exam"
              }
            ],
            "text": "Exam"
          }
        ],
        "code": {
          "coding": [
            {
              "system": "http://snomed.info/sct",
              "code": "267102003",
              "display": "Sore throat"
            }
          ],
          "text": "Sore Throat"
        },
        "subject": {
          "reference": "Patient/3b0c8a51-b65b-47a9-be58-13c58fb7b40f"
        },
        "encounter": {
          "reference": "Encounter/eca33567-715e-4962-ab1a-b3a2a53b0f31"
        },
        "effectivePeriod": {
          "start": "2025-10-17T10:22:00.561937Z"
        },
        "valueBoolean": false,
        "note": [
          {
            "text": "Definition: https://snomed.info/id/267102003"
          }
        ]
      },
      "request": {
        "method": "POST",
        "url": "Observation"
      }
    },
    {
      "fullUrl": "urn:uuid:7b6cf06f-091f-43e7-ae95-e562fe9cc46f",
      "resource": {
        "resourceType": "Observation",
        "id": "7b6cf06f-091f-43e7-ae95-e562fe9cc46f",
        "status": "final",
        "category": [
          {
            "coding": [
              {
                "system": "http://terminology.hl7.org/CodeSystem/observation-category",
                "code": "vital-signs",
                "display": "Vital Signs"
              }
            ],
            "text": "Vital Signs"
          }
        ],
        "code": {
          "coding": [
            {
              "system": "http://loinc.org",
              "code": "8310-5",
              "display": "Body temperature"
            }
          ],
          "text": "Body Temperature"
        },
        "subject": {
          "reference": "Patient/3b0c8a51-b65b-47a9-be58-13c58fb7b40f"
        },
        "encounter": {
          "reference": "Encounter/eca33567-715e-4962-ab1a-b3a2a53b0f31"
        },
        "effectiveDateTime": "2025-10-17T10:22:00.788247Z",
        "valueQuantity": {
          "value": 38.5,
          "unit": "°C",
          "system": "http://unitsofmeasure.org",
          "code": "°C"
        },
        "interpretation": [
          {
            "coding": [
              {
                "system": "http://terminology.hl7.org/CodeSystem/v3-ObservationInterpretation",
                "code": "H",
                "display": "High"
              }
            ],
            "text": "High"
          }
        ]
      },
      "request": {
        "method": "POST",
        "url": "Observation"
      }
    }
  ]
}