{
  "resourceType": "Bundle",
  "type": "transaction",
  "entry": [
    {
      "fullUrl": "urn:uuid:96dd288b-8d4c-4a25-bd87-64cf7c8e5b15",
      "resource": {
        "resourceType": "Patient",
        "id": "96dd288b-8d4c-4a25-bd87-64cf7c8e5b15",
        "name": [
          {
            "family": "Purits",
            "given": [
              "Katty"
            ]
          }
        ],
        "gender": "female",
        "address": [
          {}
        ]
      },
      "request": {
        "method": "POST",
        "url": "Patient"
      }
    },
    {
      "fullUrl": "urn:uuid:ef787a58-5521-42de-ab34-e00b7d9616f5",
      "resource": {
        "resourceType": "Encounter",
        "id": "ef787a58-5521-42de-ab34-e00b7d9616f5",
        "identifier": [
          {
            "use": "temp",
            "value": "Encounter_Katty Purits_20251017122140"
          }
        ],
        "status": "completed",
        "priority": {
          "coding": [
            {
              "system": "http://snomed.info/sct",
              "code": "17621005",
              "display": "Normal"
            }
          ]
        },
        "type": [
          {
            "coding": [
              {
                "system": "http://snomed.info/sct",
                "code": "11429006",
                "display": "Consultation"
              }
            ]
          }
        ],
        "subject": {
          "reference": "Patient/96dd288b-8d4c-4a25-bd87-64cf7c8e5b15",
          "display": "Katty Purits"
        },
        "reason": [
          {
            "value": [
              {
                "concept": {
                  "text": "intermittent high fevers for three weeks, arthralgia, and sore throat"
                }
              }
            ]
          }
        ]
      },
      "request": {
        "method": "POST",
        "url": "Encounter"
      }
    },
    {
      "fullUrl": "urn:uuid:f07174b1-ecd5-4002-8283-05fc283f976b",
      "resource": {
        "resourceType": "Observation",
        "id": "f07174b1-ecd5-4002-8283-05fc283f976b",
        "status": "final",
        "category": [
          {
            "coding": [
              {
                "system": "http://terminology.hl7.org/CodeSystem/observation-category",
                "code": "laboratory",
                "display": "Laboratory"
              }
            ],
            "text": "Laboratory"
          }
        ],
        "code": {
          "coding": [
            {
              "system": "http://loinc.org",
              "code": "50233-6",
              "display": "WBC clumps #/area UrnS Auto"
            }
          ],
          "text": "Leukocyte count"
        },
        "subject": {
          "reference": "Patient/96dd288b-8d4c-4a25-bd87-64cf7c8e5b15"
        },
        "encounter": {
          "reference": "Encounter/ef787a58-5521-42de-ab34-e00b7d9616f5"
        },
        "effectiveDateTime": "2025-10-17T10:21:41.125271Z",
        "interpretation": [
          {
            "coding": [
              {
                "system": "http://terminology.hl7.org/CodeSystem/v3-ObservationInterpretation",
                "code": "A",
                "display": "Abnormal"
              }
            ]
          }
        ],
        "note": [
          {
            "text": "Definition: https://loinc.org/50233-6/"
          }
        ]
      },
      "request": {
        "method": "POST",
        "url": "Observation"
      }
    },
    {
      "fullUrl": "urn:uuid:c1875a4d-2ecf-44e7-9c40-44fc2cdb81ab",
      "resource": {
        "resourceType": "Observation",
        "id": "c1875a4d-2ecf-44e7-9c40-44fc2cdb81ab",
        "status": "final",
        "category": [
          {
            "coding": [
              {
                "system": "http://terminology.hl7.org/CodeSystem/observation-category",
                "code": "laboratory",
                "display": "Laboratory"
              }
            ],
            "text": "Laboratory"
          }
        ],
        "code": {
          "coding": [
            {
              "system": "http://loinc.org",
              "code": "53048-5",
              "display": "Ferritin Fld-mCnc"
            }
          ],
          "text": "Ferritin"
        },
        "subject": {
          "reference": "Patient/96dd288b-8d4c-4a25-bd87-64cf7c8e5b15"
        },
        "encounter": {
          "reference": "Encounter/ef787a58-5521-42de-ab34-e00b7d9616f5"
        },
        "effectiveDateTime": "2025-10-17T10:21:41.250601Z",
        "interpretation": [
          {
            "coding": [
              {
                "system": "http://terminology.hl7.org/CodeSystem/v3-ObservationInterpretation",
                "code": "H",
                "display": "High"
              }
            ]
          }
        ],
        "note": [
          {
            "text": "Definition: https://loinc.org/53048-5/"
          }
        ]
      },
      "request": {
        "method": "POST",
        "url": "Observation"
      }
    },
    {
      "fullUrl": "urn:uuid:d53e61f8-da00-4284-9cc0-d4a3a85721a8",
      "resource": {
        "resourceType": "Observation",
        "id": "d53e61f8-da00-4284-9cc0-d4a3a85721a8",
        "status": "final",
        "category": [
          {
            "coding": [
              {
                "system": "http://terminology.hl7.org/CodeSystem/observation-category",
                "code": "laboratory",
                "display": "Laboratory"
              }
            ],
            "text": "Laboratory"
          }
        ],
        "code": {
          "coding": [
            {
              "system": "http://loinc.org",
              "code": "25746-9",
              "display": "Rheumatoid fact Titr Fld Shp Aggl"
            }
          ],
          "text": "Rheumatoid factor"
        },
        "subject": {
          "reference": "Patient/96dd288b-8d4c-4a25-bd87-64cf7c8e5b15"
        },
        "encounter": {
          "reference": "Encounter/ef787a58-5521-42de-ab34-e00b7d9616f5"
        },
        "effectiveDateTime": "2025-10-17T10:21:41.432469Z",
        "interpretation": [
          {
            "coding": [
              {
                "system": "http://terminology.hl7.org/CodeSystem/v3-ObservationInterpretation",
                "code": "L",
                "display": "Low"
              }
            ]
          }
        ],
        "note": [
          {
            "text": "Definition: https://loinc.org/25746-9/"
          }
        ]
      },
      "request": {
        "method": "POST",
        "url": "Observation"
      }
    },
    {
      "fullUrl": "urn:uuid:94f831cb-adfe-490c-a8b2-bf97b68f456e",
      "resource": {
        "resourceType": "Observation",
        "id": "94f831cb-adfe-490c-a8b2-bf97b68f456e",
        "status": "final",
        "category": [
          {
            "coding": [
              {
                "system": "http://terminology.hl7.org/CodeSystem/observation-category",
                "code": "laboratory",
                "display": "Laboratory"
              }
            ],
            "text": "Laboratory"
          }
        ],
        "code": {
          "coding": [
            {
              "system": "http://loinc.org",
              "code": "20399-2",
              "display": "ANA nucleolar Titr Ser"
            }
          ],
          "text": "Antinuclear antibody (ANA)"
        },
        "subject": {
          "reference": "Patient/96dd288b-8d4c-4a25-bd87-64cf7c8e5b15"
        },
        "encounter": {
          "reference": "Encounter/ef787a58-5521-42de-ab34-e00b7d9616f5"
        },
        "effectiveDateTime": "2025-10-17T10:21:41.637662Z",
        "interpretation": [
          {
            "coding": [
              {
                "system": "http://terminology.hl7.org/CodeSystem/v3-ObservationInterpretation",
                "code": "L",
                "display": "Low"
              }
            ]
          }
        ],
        "note": [
          {
            "text": "Definition: https://loinc.org/20399-2/"
          }
        ]
      },
      "request": {
        "method": "POST",
        "url": "Observation"
      }
    },
    {
      "fullUrl": "urn:uuid:208a2fdf-2520-4d74-ba1a-2f6c5504514e",
      "resource": {
        "resourceType": "Observation",
        "id": "208a2fdf-2520-4d74-ba1a-2f6c5504514e",
        "status": "final",
        "category": [
          {
            "coding": [
              {
                "system": "http://terminology.hl7.org/CodeSystem/observation-category",
                "code": "laboratory",
                "display": "Laboratory"
              }
            ],
            "text": "Laboratory"
          }
        ],
        "code": {
          "coding": [
            {
              "system": "http://loinc.org",
              "code": "unknown",
              "display": "Liver enzymes"
            }
          ],
          "text": "Liver enzymes"
        },
        "subject": {
          "reference": "Patient/96dd288b-8d4c-4a25-bd87-64cf7c8e5b15"
        },
        "encounter": {
          "reference": "Encounter/ef787a58-5521-42de-ab34-e00b7d9616f5"
        },
        "effectiveDateTime": "2025-10-17T10:21:41.842348Z",
        "interpretation": [
          {
            "coding": [
              {
                "system": "http://terminology.hl7.org/CodeSystem/v3-ObservationInterpretation",
                "code": "H",
                "display": "High"
              }
            ]
          }
        ]
      },
      "request": {
        "method": "POST",
        "url": "Observation"
      }
    },
    {
      "fullUrl": "urn:uuid:9b6afd9e-993b-40be-afdb-23170bc8bf81",
      "resource": {
        "resourceType": "Observation",
        "id": "9b6afd9e-993b-40be-afdb-23170bc8bf81",
        "status": "final",
        "category": [
          {
            "coding": [
              {
                "system": "http://terminology.hl7.org/CodeSystem/observation-category",
                "code": "exam",
                "display": "Exam"
              }
            ],
            "text": "Exam"
          }
        ],
        "code": {
          "coding": [
            {
              "system": "http://snomed.info/sct",
              "code": "386661006",
              "display": "Fever"
            }
          ],
          "text": "Fever"
        },
        "subject": {
          "reference": "Patient/96dd288b-8d4c-4a25-bd87-64cf7c8e5b15"
        },
        "encounter": {
          "reference": "Encounter/ef787a58-5521-42de-ab34-e00b7d9616f5"
        },
        "effectivePeriod": {
          "start": "2025-10-17T10:21:45.020244Z"
        },
        "valueBoolean": true,
        "interpretation": [
          {
            "coding": [
              {
                "system": "http://terminology.hl7.org/CodeSystem/v3-ObservationInterpretation",
                "code": "H",
                "display": "High"
              }
            ],
            "text": "High"
          }
        ],
        "note": [
          {
            "text": "Definition: https://snomed.info/id/386661006"
          }
        ]
      },
      "request": {
        "method": "POST",
        "url": "Observation"
      }
    },
    {
      "fullUrl": "urn:uuid:a9f375f9-80f7-4993-89af-093f6ceec566",
      "resource": {
        "resourceType": "Observation",
        "id": "a9f375f9-80f7-4993-89af-093f6ceec566",
        "status": "final",
        "category": [
          {
            "coding": [
              {
                "system": "http://terminology.hl7.org/CodeSystem/observation-category",
                "code": "exam",
                "display": "Exam"
              }
            ],
            "text": "Exam"
          }
        ],
        "code": {
          "coding": [
            {
              "system": "http://snomed.info/sct",
              "code": "277138006",
              "display": "Rubella arthralgia"
            }
          ],
          "text": "Arthralgia"
        },
        "subject": {
          "reference": "Patient/96dd288b-8d4c-4a25-bd87-64cf7c8e5b15"
        },
        "encounter": {
          "reference": "Encounter/ef787a58-5521-42de-ab34-e00b7d9616f5"
        },
        "effectivePeriod": {
          "start": "2025-10-17T10:21:46.557136Z"
        },
        "valueBoolean": true,
        "note": [
          {
            "text": "Definition: https://snomed.info/id/277138006"
          }
        ]
      },
      "request": {
        "method": "POST",
        "url": "Observation"
      }
    },
    {
      "fullUrl": "urn:uuid:772c2b6c-619c-46d1-8de4-34f504e7bff4",
      "resource": {
        "resourceType": "Observation",
        "id": "772c2b6c-619c-46d1-8de4-34f504e7bff4",
        "status": "final",
        "category": [
          {
            "coding": [
              {
                "system": "http://terminology.hl7.org/CodeSystem/observation-category",
                "code": "exam",
                "display": "Exam"
              }
            ],
            "text": "Exam"
          }
        ],
        "code": {
          "coding": [
            {
              "system": "http://snomed.info/sct",
              "code": "267102003",
              "display": "Sore throat"
            }
          ],
          "text": "Sore throat"
        },
        "subject": {
          "reference": "Patient/96dd288b-8d4c-4a25-bd87-64cf7c8e5b15"
        },
        "encounter": {
          "reference": "Encounter/ef787a58-5521-42de-ab34-e00b7d9616f5"
        },
        "effectivePeriod": {
          "start": "2025-10-17T10:21:48.298013Z"
        },
        "valueBoolean": true,
        "note": [
          {
            "text": "Definition: https://snomed.info/id/267102003"
          }
        ]
      },
      "request": {
        "method": "POST",
        "url": "Observation"
      }
    },
    {
      "fullUrl": "urn:uuid:8f6e58f3-a176-446e-a374-a05237493ec0",
      "resource": {
        "resourceType": "Observation",
        "id": "8f6e58f3-a176-446e-a374-a05237493ec0",
        "status": "final",
        "category": [
          {
            "coding": [
              {
                "system": "http://terminology.hl7.org/CodeSystem/observation-category",
                "code": "exam",
                "display": "Exam"
              }
            ],
            "text": "Exam"
          }
        ],
        "code": {
          "coding": [
            {
              "system": "http://snomed.info/sct",
              "code": "89757007",
              "display": "Macular rash"
            }
          ],
          "text": "Rash"
        },
        "subject": {
          "reference": "Patient/96dd288b-8d4c-4a25-bd87-64cf7c8e5b15"
        },
        "encounter": {
          "reference": "Encounter/ef787a58-5521-42de-ab34-e00b7d9616f5"
        },
        "effectivePeriod": {
          "start": "2025-10-17T10:21:50.039323Z"
        },
        "valueBoolean": true,
        "note": [
          {
            "text": "Definition: https://snomed.info/id/89757007"
          }
        ]
      },
      "request": {
        "method": "POST",
        "url": "Observation"
      }
    }
  ]
}