{
  "resourceType": "Bundle",
  "type": "transaction",
  "entry": [
    {
      "fullUrl": "urn:uuid:99ce47bb-26de-4bc3-a78d-19abecb0a2ea",
      "resource": {
        "resourceType": "Patient",
        "id": "99ce47bb-26de-4bc3-a78d-19abecb0a2ea",
        "name": [
          {
            "family": "Sokolov",
            "given": [
              "Ivan"
            ]
          }
        ],
        "gender": "male",
        "address": [
          {}
        ]
      },
      "request": {
        "method": "POST",
        "url": "Patient"
      }
    },
    {
      "fullUrl": "urn:uuid:71752ce0-1b38-4cd0-84ab-d0b6dc6ac74e",
      "resource": {
        "resourceType": "Encounter",
        "id": "71752ce0-1b38-4cd0-84ab-d0b6dc6ac74e",
        "identifier": [
          {
            "use": "temp",
            "value": "Encounter_Ivan Sokolov_20251017182633"
          }
        ],
        "status": "completed",
        "priority": {
          "coding": [
            {
              "system": "http://snomed.info/sct",
              "code": "17621005",
              "display": "Normal"
            }
          ]
        },
        "type": [
          {
            "coding": [
              {
                "system": "http://snomed.info/sct",
                "code": "11429006",
                "display": "Consultation"
              }
            ]
          }
        ],
        "subject": {
          "reference": "Patient/99ce47bb-26de-4bc3-a78d-19abecb0a2ea",
          "display": "Ivan Sokolov"
        },
        "reason": [
          {
            "value": [
              {
                "concept": {
                  "text": "recurring episodes of high fever, sore throat, and a diffuse rash"
                }
              }
            ]
          }
        ]
      },
      "request": {
        "method": "POST",
        "url": "Encounter"
      }
    },
    {
      "fullUrl": "urn:uuid:5229ba49-f8f5-45c2-9fea-80b5da3f65a9",
      "resource": {
        "resourceType": "Observation",
        "id": "5229ba49-f8f5-45c2-9fea-80b5da3f65a9",
        "status": "final",
        "category": [
          {
            "coding": [
              {
                "system": "http://terminology.hl7.org/CodeSystem/observation-category",
                "code": "laboratory",
                "display": "Laboratory"
              }
            ],
            "text": "Laboratory"
          }
        ],
        "code": {
          "coding": [
            {
              "system": "http://loinc.org",
              "code": "53048-5",
              "display": "Ferritin Fld-mCnc"
            }
          ],
          "text": "Ferritin"
        },
        "subject": {
          "reference": "Patient/99ce47bb-26de-4bc3-a78d-19abecb0a2ea"
        },
        "encounter": {
          "reference": "Encounter/71752ce0-1b38-4cd0-84ab-d0b6dc6ac74e"
        },
        "effectiveDateTime": "2025-10-16",
        "valueQuantity": {
          "value": 2800.0,
          "unit": "ng/mL",
          "system": "http://unitsofmeasure.org",
          "code": "ng/mL"
        },
        "interpretation": [
          {
            "coding": [
              {
                "system": "http://terminology.hl7.org/CodeSystem/v3-ObservationInterpretation",
                "code": "H",
                "display": "High"
              }
            ]
          }
        ],
        "note": [
          {
            "text": "Definition: https://loinc.org/53048-5/"
          }
        ]
      },
      "request": {
        "method": "POST",
        "url": "Observation"
      }
    },
    {
      "fullUrl": "urn:uuid:0c16f1c9-cb79-497b-8f60-183ee141c3de",
      "resource": {
        "resourceType": "Observation",
        "id": "0c16f1c9-cb79-497b-8f60-183ee141c3de",
        "status": "final",
        "category": [
          {
            "coding": [
              {
                "system": "http://terminology.hl7.org/CodeSystem/observation-category",
                "code": "laboratory",
                "display": "Laboratory"
              }
            ],
            "text": "Laboratory"
          }
        ],
        "code": {
          "coding": [
            {
              "system": "http://loinc.org",
              "code": "93005-7",
              "display": "Rapid alt hand move - L+R mean Score"
            }
          ],
          "text": "ALT"
        },
        "subject": {
          "reference": "Patient/99ce47bb-26de-4bc3-a78d-19abecb0a2ea"
        },
        "encounter": {
          "reference": "Encounter/71752ce0-1b38-4cd0-84ab-d0b6dc6ac74e"
        },
        "effectiveDateTime": "2025-10-16",
        "interpretation": [
          {
            "coding": [
              {
                "system": "http://terminology.hl7.org/CodeSystem/v3-ObservationInterpretation",
                "code": "A",
                "display": "Abnormal"
              }
            ]
          }
        ],
        "note": [
          {
            "text": "Definition: https://loinc.org/93005-7/"
          }
        ]
      },
      "request": {
        "method": "POST",
        "url": "Observation"
      }
    },
    {
      "fullUrl": "urn:uuid:652e0e1c-2b16-4e38-b53e-ef54597008ee",
      "resource": {
        "resourceType": "Observation",
        "id": "652e0e1c-2b16-4e38-b53e-ef54597008ee",
        "status": "final",
        "category": [
          {
            "coding": [
              {
                "system": "http://terminology.hl7.org/CodeSystem/observation-category",
                "code": "laboratory",
                "display": "Laboratory"
              }
            ],
            "text": "Laboratory"
          }
        ],
        "code": {
          "coding": [
            {
              "system": "http://loinc.org",
              "code": "102116-1",
              "display": "ESR1 gene mutation panel"
            }
          ],
          "text": "ESR"
        },
        "subject": {
          "reference": "Patient/99ce47bb-26de-4bc3-a78d-19abecb0a2ea"
        },
        "encounter": {
          "reference": "Encounter/71752ce0-1b38-4cd0-84ab-d0b6dc6ac74e"
        },
        "effectiveDateTime": "2025-10-16",
        "valueQuantity": {
          "value": 80.0,
          "unit": "mm/hr",
          "system": "http://unitsofmeasure.org",
          "code": "mm/hr"
        },
        "interpretation": [
          {
            "coding": [
              {
                "system": "http://terminology.hl7.org/CodeSystem/v3-ObservationInterpretation",
                "code": "H",
                "display": "High"
              }
            ]
          }
        ],
        "note": [
          {
            "text": "Definition: https://loinc.org/102116-1/"
          }
        ]
      },
      "request": {
        "method": "POST",
        "url": "Observation"
      }
    },
    {
      "fullUrl": "urn:uuid:f6eef81c-66aa-4ac1-b455-76355717fb2c",
      "resource": {
        "resourceType": "Observation",
        "id": "f6eef81c-66aa-4ac1-b455-76355717fb2c",
        "status": "final",
        "category": [
          {
            "coding": [
              {
                "system": "http://terminology.hl7.org/CodeSystem/observation-category",
                "code": "exam",
                "display": "Exam"
              }
            ],
            "text": "Exam"
          }
        ],
        "code": {
          "coding": [
            {
              "system": "http://snomed.info/sct",
              "code": "386661006",
              "display": "Fever"
            }
          ],
          "text": "Fever"
        },
        "subject": {
          "reference": "Patient/99ce47bb-26de-4bc3-a78d-19abecb0a2ea"
        },
        "encounter": {
          "reference": "Encounter/71752ce0-1b38-4cd0-84ab-d0b6dc6ac74e"
        },
        "effectivePeriod": {
          "start": "2025-10-16"
        },
        "valueBoolean": true,
        "interpretation": [
          {
            "coding": [
              {
                "system": "http://terminology.hl7.org/CodeSystem/v3-ObservationInterpretation",
                "code": "H",
                "display": "High"
              }
            ],
            "text": "High"
          }
        ],
        "note": [
          {
            "text": "Definition: https://snomed.info/id/386661006"
          }
        ]
      },
      "request": {
        "method": "POST",
        "url": "Observation"
      }
    },
    {
      "fullUrl": "urn:uuid:cfcd8f9d-9acc-4f78-b914-9d76cf2020a6",
      "resource": {
        "resourceType": "Observation",
        "id": "cfcd8f9d-9acc-4f78-b914-9d76cf2020a6",
        "status": "final",
        "category": [
          {
            "coding": [
              {
                "system": "http://terminology.hl7.org/CodeSystem/observation-category",
                "code": "exam",
                "display": "Exam"
              }
            ],
            "text": "Exam"
          }
        ],
        "code": {
          "coding": [
            {
              "system": "http://snomed.info/sct",
              "code": "267102003",
              "display": "Sore throat"
            }
          ],
          "text": "Sore throat"
        },
        "subject": {
          "reference": "Patient/99ce47bb-26de-4bc3-a78d-19abecb0a2ea"
        },
        "encounter": {
          "reference": "Encounter/71752ce0-1b38-4cd0-84ab-d0b6dc6ac74e"
        },
        "effectivePeriod": {
          "start": "2025-10-16"
        },
        "valueBoolean": true,
        "note": [
          {
            "text": "Definition: https://snomed.info/id/267102003"
          }
        ]
      },
      "request": {
        "method": "POST",
        "url": "Observation"
      }
    },
    {
      "fullUrl": "urn:uuid:0450b198-0e8e-4a21-92e2-90e6001bde46",
      "resource": {
        "resourceType": "Observation",
        "id": "0450b198-0e8e-4a21-92e2-90e6001bde46",
        "status": "final",
        "category": [
          {
            "coding": [
              {
                "system": "http://terminology.hl7.org/CodeSystem/observation-category",
                "code": "exam",
                "display": "Exam"
              }
            ],
            "text": "Exam"
          }
        ],
        "code": {
          "coding": [
            {
              "system": "http://snomed.info/sct",
              "code": "725119006",
              "display": "Generalized rash"
            }
          ],
          "text": "Diffuse rash"
        },
        "subject": {
          "reference": "Patient/99ce47bb-26de-4bc3-a78d-19abecb0a2ea"
        },
        "encounter": {
          "reference": "Encounter/71752ce0-1b38-4cd0-84ab-d0b6dc6ac74e"
        },
        "effectivePeriod": {
          "start": "2025-10-16"
        },
        "valueBoolean": true,
        "note": [
          {
            "text": "Definition: https://snomed.info/id/725119006"
          }
        ]
      },
      "request": {
        "method": "POST",
        "url": "Observation"
      }
    },
    {
      "fullUrl": "urn:uuid:f8daf9cc-e225-416c-bb32-731613811d66",
      "resource": {
        "resourceType": "Observation",
        "id": "f8daf9cc-e225-416c-bb32-731613811d66",
        "status": "final",
        "category": [
          {
            "coding": [
              {
                "system": "http://terminology.hl7.org/CodeSystem/observation-category",
                "code": "exam",
                "display": "Exam"
              }
            ],
            "text": "Exam"
          }
        ],
        "code": {
          "coding": [
            {
              "system": "http://snomed.info/sct",
              "code": "816160009",
              "display": "Weight loss"
            }
          ],
          "text": "Weight loss"
        },
        "subject": {
          "reference": "Patient/99ce47bb-26de-4bc3-a78d-19abecb0a2ea"
        },
        "encounter": {
          "reference": "Encounter/71752ce0-1b38-4cd0-84ab-d0b6dc6ac74e"
        },
        "effectivePeriod": {
          "start": "2025-10-16"
        },
        "valueBoolean": true,
        "note": [
          {
            "text": "Definition: https://snomed.info/id/816160009"
          }
        ]
      },
      "request": {
        "method": "POST",
        "url": "Observation"
      }
    },
    {
      "fullUrl": "urn:uuid:87e7ba6d-c8a6-4412-9e21-0f6b927fd0d7",
      "resource": {
        "resourceType": "Observation",
        "id": "87e7ba6d-c8a6-4412-9e21-0f6b927fd0d7",
        "status": "final",
        "category": [
          {
            "coding": [
              {
                "system": "http://terminology.hl7.org/CodeSystem/observation-category",
                "code": "exam",
                "display": "Exam"
              }
            ],
            "text": "Exam"
          }
        ],
        "code": {
          "coding": [
            {
              "system": "http://snomed.info/sct",
              "code": "84229001",
              "display": "Fatigue"
            }
          ],
          "text": "Fatigue"
        },
        "subject": {
          "reference": "Patient/99ce47bb-26de-4bc3-a78d-19abecb0a2ea"
        },
        "encounter": {
          "reference": "Encounter/71752ce0-1b38-4cd0-84ab-d0b6dc6ac74e"
        },
        "effectivePeriod": {
          "start": "2025-10-16"
        },
        "valueBoolean": true,
        "note": [
          {
            "text": "Definition: https://snomed.info/id/84229001"
          }
        ]
      },
      "request": {
        "method": "POST",
        "url": "Observation"
      }
    },
    {
      "fullUrl": "urn:uuid:b5ff7859-8d24-43aa-a6c8-3d41a6674658",
      "resource": {
        "resourceType": "Observation",
        "id": "b5ff7859-8d24-43aa-a6c8-3d41a6674658",
        "status": "final",
        "category": [
          {
            "coding": [
              {
                "system": "http://terminology.hl7.org/CodeSystem/observation-category",
                "code": "vital-signs",
                "display": "Vital Signs"
              }
            ],
            "text": "Vital Signs"
          }
        ],
        "code": {
          "coding": [
            {
              "system": "http://loinc.org",
              "code": "8310-5",
              "display": "Body temperature"
            }
          ],
          "text": "Body temperature"
        },
        "subject": {
          "reference": "Patient/99ce47bb-26de-4bc3-a78d-19abecb0a2ea"
        },
        "encounter": {
          "reference": "Encounter/71752ce0-1b38-4cd0-84ab-d0b6dc6ac74e"
        },
        "effectiveDateTime": "2025-10-16",
        "valueQuantity": {
          "value": 40.0,
          "unit": "°C",
          "system": "http://unitsofmeasure.org",
          "code": "°C"
        },
        "interpretation": [
          {
            "coding": [
              {
                "system": "http://terminology.hl7.org/CodeSystem/v3-ObservationInterpretation",
                "code": "H",
                "display": "High"
              }
            ],
            "text": "High"
          }
        ]
      },
      "request": {
        "method": "POST",
        "url": "Observation"
      }
    }
  ]
}