{
  "resourceType": "Bundle",
  "type": "transaction",
  "entry": [
    {
      "fullUrl": "urn:uuid:f1b492f3-7922-4bb9-8975-66292cd5fb61",
      "resource": {
        "resourceType": "Patient",
        "id": "f1b492f3-7922-4bb9-8975-66292cd5fb61",
        "name": [
          {
            "family": "Wilson",
            "given": [
              "Emily"
            ]
          }
        ],
        "gender": "female",
        "birthDate": "2015-01-01",
        "address": [
          {}
        ]
      },
      "request": {
        "method": "POST",
        "url": "Patient"
      }
    },
    {
      "fullUrl": "urn:uuid:cce194d4-2c5b-45a1-aaa3-64893aa6392d",
      "resource": {
        "resourceType": "Encounter",
        "id": "cce194d4-2c5b-45a1-aaa3-64893aa6392d",
        "identifier": [
          {
            "use": "temp",
            "value": "Encounter_Emily Wilson_20251023095609"
          }
        ],
        "status": "completed",
        "priority": {
          "coding": [
            {
              "system": "http://snomed.info/sct",
              "code": "17621005",
              "display": "Normal"
            }
          ]
        },
        "type": [
          {
            "coding": [
              {
                "system": "http://snomed.info/sct",
                "code": "11429006",
                "display": "Consultation"
              }
            ]
          }
        ],
        "subject": {
          "reference": "Patient/f1b492f3-7922-4bb9-8975-66292cd5fb61",
          "display": "Emily Wilson"
        },
        "reason": [
          {
            "value": [
              {
                "concept": {
                  "text": "mild fatigue and occasional muscle pains in her legs"
                }
              }
            ]
          }
        ]
      },
      "request": {
        "method": "POST",
        "url": "Encounter"
      }
    },
    {
      "fullUrl": "urn:uuid:232ecd4a-db19-42ac-9f4f-19a2fadaa01a",
      "resource": {
        "resourceType": "Observation",
        "id": "232ecd4a-db19-42ac-9f4f-19a2fadaa01a",
        "status": "final",
        "category": [
          {
            "coding": [
              {
                "system": "http://terminology.hl7.org/CodeSystem/observation-category",
                "code": "laboratory",
                "display": "Laboratory"
              }
            ],
            "text": "Laboratory"
          }
        ],
        "code": {
          "coding": [
            {
              "system": "http://loinc.org",
              "code": "32615-7",
              "display": "Hycs-Cys diS SerPl-sCnc"
            }
          ],
          "text": "Plasma homocysteine level"
        },
        "subject": {
          "reference": "Patient/f1b492f3-7922-4bb9-8975-66292cd5fb61"
        },
        "encounter": {
          "reference": "Encounter/cce194d4-2c5b-45a1-aaa3-64893aa6392d"
        },
        "effectiveDateTime": "2025-10-16",
        "valueQuantity": {
          "value": 15.2,
          "unit": "micromoles per liter",
          "system": "http://unitsofmeasure.org",
          "code": "micromoles per liter"
        },
        "interpretation": [
          {
            "coding": [
              {
                "system": "http://terminology.hl7.org/CodeSystem/v3-ObservationInterpretation",
                "code": "H",
                "display": "High"
              }
            ]
          }
        ],
        "note": [
          {
            "text": "Definition: https://loinc.org/32615-7/"
          }
        ]
      },
      "request": {
        "method": "POST",
        "url": "Observation"
      }
    },
    {
      "fullUrl": "urn:uuid:11ab5941-3d7f-49be-8103-b290a7b25035",
      "resource": {
        "resourceType": "Observation",
        "id": "11ab5941-3d7f-49be-8103-b290a7b25035",
        "status": "final",
        "category": [
          {
            "coding": [
              {
                "system": "http://terminology.hl7.org/CodeSystem/observation-category",
                "code": "laboratory",
                "display": "Laboratory"
              }
            ],
            "text": "Laboratory"
          }
        ],
        "code": {
          "coding": [
            {
              "system": "http://loinc.org",
              "code": "58410-2",
              "display": "Complete blood count panel"
            }
          ],
          "text": "Complete blood count"
        },
        "subject": {
          "reference": "Patient/f1b492f3-7922-4bb9-8975-66292cd5fb61"
        },
        "encounter": {
          "reference": "Encounter/cce194d4-2c5b-45a1-aaa3-64893aa6392d"
        },
        "effectiveDateTime": "2025-10-16",
        "note": [
          {
            "text": "Definition: https://loinc.org/58410-2/"
          }
        ]
      },
      "request": {
        "method": "POST",
        "url": "Observation"
      }
    },
    {
      "fullUrl": "urn:uuid:bc4d2aa7-46d1-4aa9-b251-e04f77fc8901",
      "resource": {
        "resourceType": "Observation",
        "id": "bc4d2aa7-46d1-4aa9-b251-e04f77fc8901",
        "status": "final",
        "category": [
          {
            "coding": [
              {
                "system": "http://terminology.hl7.org/CodeSystem/observation-category",
                "code": "laboratory",
                "display": "Laboratory"
              }
            ],
            "text": "Laboratory"
          }
        ],
        "code": {
          "coding": [
            {
              "system": "http://loinc.org",
              "code": "51990-0",
              "display": "Basic metabolic panel"
            }
          ],
          "text": "Basic metabolic panel"
        },
        "subject": {
          "reference": "Patient/f1b492f3-7922-4bb9-8975-66292cd5fb61"
        },
        "encounter": {
          "reference": "Encounter/cce194d4-2c5b-45a1-aaa3-64893aa6392d"
        },
        "effectiveDateTime": "2025-10-16",
        "note": [
          {
            "text": "Definition: https://loinc.org/51990-0/"
          }
        ]
      },
      "request": {
        "method": "POST",
        "url": "Observation"
      }
    },
    {
      "fullUrl": "urn:uuid:5478bf02-e86d-4f2d-8a4e-706a4e19a7e0",
      "resource": {
        "resourceType": "Observation",
        "id": "5478bf02-e86d-4f2d-8a4e-706a4e19a7e0",
        "status": "final",
        "category": [
          {
            "coding": [
              {
                "system": "http://terminology.hl7.org/CodeSystem/observation-category",
                "code": "exam",
                "display": "Exam"
              }
            ],
            "text": "Exam"
          }
        ],
        "code": {
          "coding": [
            {
              "system": "http://snomed.info/sct",
              "code": "84229001",
              "display": "Fatigue"
            }
          ],
          "text": "Mild fatigue"
        },
        "subject": {
          "reference": "Patient/f1b492f3-7922-4bb9-8975-66292cd5fb61"
        },
        "encounter": {
          "reference": "Encounter/cce194d4-2c5b-45a1-aaa3-64893aa6392d"
        },
        "effectivePeriod": {
          "start": "2025-10-16"
        },
        "valueBoolean": true,
        "note": [
          {
            "text": "Definition: https://snomed.info/id/84229001"
          }
        ]
      },
      "request": {
        "method": "POST",
        "url": "Observation"
      }
    },
    {
      "fullUrl": "urn:uuid:4345fd39-a7cb-43d0-874f-749faf39ba62",
      "resource": {
        "resourceType": "Observation",
        "id": "4345fd39-a7cb-43d0-874f-749faf39ba62",
        "status": "final",
        "category": [
          {
            "coding": [
              {
                "system": "http://terminology.hl7.org/CodeSystem/observation-category",
                "code": "exam",
                "display": "Exam"
              }
            ],
            "text": "Exam"
          }
        ],
        "code": {
          "coding": [
            {
              "system": "http://snomed.info/sct",
              "code": "102482005",
              "display": "Growing pains"
            }
          ],
          "text": "Muscle pains in legs"
        },
        "subject": {
          "reference": "Patient/f1b492f3-7922-4bb9-8975-66292cd5fb61"
        },
        "encounter": {
          "reference": "Encounter/cce194d4-2c5b-45a1-aaa3-64893aa6392d"
        },
        "effectivePeriod": {
          "start": "2025-10-16"
        },
        "valueBoolean": true,
        "note": [
          {
            "text": "Definition: https://snomed.info/id/102482005"
          }
        ]
      },
      "request": {
        "method": "POST",
        "url": "Observation"
      }
    },
    {
      "fullUrl": "urn:uuid:864a7739-fe54-4d8d-8940-da9e912d0f30",
      "resource": {
        "resourceType": "Observation",
        "id": "864a7739-fe54-4d8d-8940-da9e912d0f30",
        "status": "final",
        "category": [
          {
            "coding": [
              {
                "system": "http://terminology.hl7.org/CodeSystem/observation-category",
                "code": "vital-signs",
                "display": "Vital Signs"
              }
            ],
            "text": "Vital Signs"
          }
        ],
        "code": {
          "coding": [
            {
              "system": "http://loinc.org",
              "code": "8310-5",
              "display": "Body temperature"
            }
          ],
          "text": "temperature"
        },
        "subject": {
          "reference": "Patient/f1b492f3-7922-4bb9-8975-66292cd5fb61"
        },
        "encounter": {
          "reference": "Encounter/cce194d4-2c5b-45a1-aaa3-64893aa6392d"
        },
        "effectiveDateTime": "2025-10-16",
        "valueQuantity": {
          "value": 36.8,
          "unit": "degrees Celsius",
          "system": "http://unitsofmeasure.org",
          "code": "degrees Celsius"
        },
        "interpretation": [
          {
            "coding": [
              {
                "system": "http://terminology.hl7.org/CodeSystem/v3-ObservationInterpretation",
                "code": "N",
                "display": "Normal"
              }
            ],
            "text": "Normal"
          }
        ]
      },
      "request": {
        "method": "POST",
        "url": "Observation"
      }
    },
    {
      "fullUrl": "urn:uuid:72384f7a-85c1-4cfc-8ffb-c073076f41ea",
      "resource": {
        "resourceType": "Observation",
        "id": "72384f7a-85c1-4cfc-8ffb-c073076f41ea",
        "status": "final",
        "category": [
          {
            "coding": [
              {
                "system": "http://terminology.hl7.org/CodeSystem/observation-category",
                "code": "vital-signs",
                "display": "Vital Signs"
              }
            ],
            "text": "Vital Signs"
          }
        ],
        "code": {
          "coding": [
            {
              "system": "http://loinc.org",
              "code": "62733-1",
              "display": "PhenX - respiratory - pulse oximetry - rest protocol 091101"
            }
          ],
          "text": "pulse"
        },
        "subject": {
          "reference": "Patient/f1b492f3-7922-4bb9-8975-66292cd5fb61"
        },
        "encounter": {
          "reference": "Encounter/cce194d4-2c5b-45a1-aaa3-64893aa6392d"
        },
        "effectiveDateTime": "2025-10-16",
        "valueQuantity": {
          "value": 80.0,
          "unit": "beats per minute",
          "system": "http://unitsofmeasure.org",
          "code": "beats per minute"
        },
        "interpretation": [
          {
            "coding": [
              {
                "system": "http://terminology.hl7.org/CodeSystem/v3-ObservationInterpretation",
                "code": "N",
                "display": "Normal"
              }
            ],
            "text": "Normal"
          }
        ]
      },
      "request": {
        "method": "POST",
        "url": "Observation"
      }
    },
    {
      "fullUrl": "urn:uuid:303b69e6-f25b-4a6a-bc12-2e7cd77017b5",
      "resource": {
        "resourceType": "Observation",
        "id": "303b69e6-f25b-4a6a-bc12-2e7cd77017b5",
        "status": "final",
        "category": [
          {
            "coding": [
              {
                "system": "http://terminology.hl7.org/CodeSystem/observation-category",
                "code": "vital-signs",
                "display": "Vital Signs"
              }
            ],
            "text": "Vital Signs"
          }
        ],
        "code": {
          "coding": [
            {
              "system": "http://loinc.org",
              "code": "18684-1",
              "display": "Blood pressure"
            }
          ],
          "text": "blood pressure"
        },
        "subject": {
          "reference": "Patient/f1b492f3-7922-4bb9-8975-66292cd5fb61"
        },
        "encounter": {
          "reference": "Encounter/cce194d4-2c5b-45a1-aaa3-64893aa6392d"
        },
        "effectiveDateTime": "2025-10-16",
        "valueQuantity": {
          "value": 100.0,
          "unit": "mmHg",
          "system": "http://unitsofmeasure.org",
          "code": "mmHg"
        },
        "interpretation": [
          {
            "coding": [
              {
                "system": "http://terminology.hl7.org/CodeSystem/v3-ObservationInterpretation",
                "code": "N",
                "display": "Normal"
              }
            ],
            "text": "Normal"
          }
        ]
      },
      "request": {
        "method": "POST",
        "url": "Observation"
      }
    },
    {
      "fullUrl": "urn:uuid:dfa1b0a4-18fb-4e15-8bc3-3a3d50b88899",
      "resource": {
        "resourceType": "Observation",
        "id": "dfa1b0a4-18fb-4e15-8bc3-3a3d50b88899",
        "status": "final",
        "category": [
          {
            "coding": [
              {
                "system": "http://terminology.hl7.org/CodeSystem/observation-category",
                "code": "vital-signs",
                "display": "Vital Signs"
              }
            ],
            "text": "Vital Signs"
          }
        ],
        "code": {
          "coding": [
            {
              "system": "http://loinc.org",
              "code": "9279-1",
              "display": "Resp rate"
            }
          ],
          "text": "respiratory rate"
        },
        "subject": {
          "reference": "Patient/f1b492f3-7922-4bb9-8975-66292cd5fb61"
        },
        "encounter": {
          "reference": "Encounter/cce194d4-2c5b-45a1-aaa3-64893aa6392d"
        },
        "effectiveDateTime": "2025-10-16",
        "valueQuantity": {
          "value": 18.0,
          "unit": "breaths per minute",
          "system": "http://unitsofmeasure.org",
          "code": "breaths per minute"
        },
        "interpretation": [
          {
            "coding": [
              {
                "system": "http://terminology.hl7.org/CodeSystem/v3-ObservationInterpretation",
                "code": "N",
                "display": "Normal"
              }
            ],
            "text": "Normal"
          }
        ]
      },
      "request": {
        "method": "POST",
        "url": "Observation"
      }
    },
    {
      "fullUrl": "urn:uuid:e8cb62d3-db65-4730-ae80-62df59c5d58d",
      "resource": {
        "resourceType": "Observation",
        "id": "e8cb62d3-db65-4730-ae80-62df59c5d58d",
        "status": "final",
        "category": [
          {
            "coding": [
              {
                "system": "http://terminology.hl7.org/CodeSystem/observation-category",
                "code": "vital-signs",
                "display": "Vital Signs"
              }
            ],
            "text": "Vital Signs"
          }
        ],
        "code": {
          "coding": [
            {
              "system": "http://loinc.org",
              "code": "8337-8",
              "display": "Bdy weight special circumstances"
            }
          ],
          "text": "weight"
        },
        "subject": {
          "reference": "Patient/f1b492f3-7922-4bb9-8975-66292cd5fb61"
        },
        "encounter": {
          "reference": "Encounter/cce194d4-2c5b-45a1-aaa3-64893aa6392d"
        },
        "effectiveDateTime": "2025-10-16",
        "valueQuantity": {
          "value": 32.0,
          "unit": "kilograms",
          "system": "http://unitsofmeasure.org",
          "code": "kilograms"
        },
        "interpretation": [
          {
            "coding": [
              {
                "system": "http://terminology.hl7.org/CodeSystem/v3-ObservationInterpretation",
                "code": "N",
                "display": "Normal"
              }
            ],
            "text": "Normal"
          }
        ]
      },
      "request": {
        "method": "POST",
        "url": "Observation"
      }
    },
    {
      "fullUrl": "urn:uuid:50b47517-bb2a-4772-9d6b-9ab9c2066b6c",
      "resource": {
        "resourceType": "Observation",
        "id": "50b47517-bb2a-4772-9d6b-9ab9c2066b6c",
        "status": "final",
        "category": [
          {
            "coding": [
              {
                "system": "http://terminology.hl7.org/CodeSystem/observation-category",
                "code": "vital-signs",
                "display": "Vital Signs"
              }
            ],
            "text": "Vital Signs"
          }
        ],
        "code": {
          "coding": [
            {
              "system": "http://loinc.org",
              "code": "92998-4",
              "display": "Lower segment"
            }
          ],
          "text": "height"
        },
        "subject": {
          "reference": "Patient/f1b492f3-7922-4bb9-8975-66292cd5fb61"
        },
        "encounter": {
          "reference": "Encounter/cce194d4-2c5b-45a1-aaa3-64893aa6392d"
        },
        "effectiveDateTime": "2025-10-16",
        "valueQuantity": {
          "value": 140.0,
          "unit": "centimeters",
          "system": "http://unitsofmeasure.org",
          "code": "centimeters"
        },
        "interpretation": [
          {
            "coding": [
              {
                "system": "http://terminology.hl7.org/CodeSystem/v3-ObservationInterpretation",
                "code": "N",
                "display": "Normal"
              }
            ],
            "text": "Normal"
          }
        ]
      },
      "request": {
        "method": "POST",
        "url": "Observation"
      }
    },
    {
      "fullUrl": "urn:uuid:b90ccd78-2b61-4c17-846c-a5683074fd79",
      "resource": {
        "resourceType": "Observation",
        "id": "b90ccd78-2b61-4c17-846c-a5683074fd79",
        "status": "final",
        "category": [
          {
            "coding": [
              {
                "system": "http://terminology.hl7.org/CodeSystem/observation-category",
                "code": "vital-signs",
                "display": "Vital Signs"
              }
            ],
            "text": "Vital Signs"
          }
        ],
        "code": {
          "coding": [
            {
              "system": "http://loinc.org",
              "code": "97057-4",
              "display": "Body mass index"
            }
          ],
          "text": "body mass index"
        },
        "subject": {
          "reference": "Patient/f1b492f3-7922-4bb9-8975-66292cd5fb61"
        },
        "encounter": {
          "reference": "Encounter/cce194d4-2c5b-45a1-aaa3-64893aa6392d"
        },
        "effectiveDateTime": "2025-10-16",
        "interpretation": [
          {
            "coding": [
              {
                "system": "http://terminology.hl7.org/CodeSystem/v3-ObservationInterpretation",
                "code": "N",
                "display": "Normal"
              }
            ],
            "text": "Normal"
          }
        ]
      },
      "request": {
        "method": "POST",
        "url": "Observation"
      }
    },
    {
      "fullUrl": "urn:uuid:6fc514ca-1de1-4d0f-83e7-e6679605018c",
      "resource": {
        "resourceType": "Encounter",
        "id": "6fc514ca-1de1-4d0f-83e7-e6679605018c",
        "identifier": [
          {
            "use": "temp",
            "value": "Encounter_Emily Wilson_20251023095615"
          }
        ],
        "status": "completed",
        "priority": {
          "coding": [
            {
              "system": "http://snomed.info/sct",
              "code": "17621005",
              "display": "Normal"
            }
          ]
        },
        "type": [
          {
            "coding": [
              {
                "system": "http://snomed.info/sct",
                "code": "11429006",
                "display": "Consultation"
              }
            ]
          }
        ],
        "subject": {
          "reference": "Patient/f1b492f3-7922-4bb9-8975-66292cd5fb61",
          "display": "Emily Wilson"
        }
      },
      "request": {
        "method": "POST",
        "url": "Encounter"
      }
    },
    {
      "fullUrl": "urn:uuid:ec5efc43-70ed-4bab-8b9b-6ce4d4a2d53d",
      "resource": {
        "resourceType": "Observation",
        "id": "ec5efc43-70ed-4bab-8b9b-6ce4d4a2d53d",
        "status": "final",
        "category": [
          {
            "coding": [
              {
                "system": "http://terminology.hl7.org/CodeSystem/observation-category",
                "code": "laboratory",
                "display": "Laboratory"
              }
            ],
            "text": "Laboratory"
          }
        ],
        "code": {
          "coding": [
            {
              "system": "http://loinc.org",
              "code": "2317-6",
              "display": "GABA SerPl Ql"
            }
          ],
          "text": "Plasma amino acid screen"
        },
        "subject": {
          "reference": "Patient/f1b492f3-7922-4bb9-8975-66292cd5fb61"
        },
        "encounter": {
          "reference": "Encounter/6fc514ca-1de1-4d0f-83e7-e6679605018c"
        },
        "effectiveDateTime": "2025-08-16",
        "note": [
          {
            "text": "Definition: https://loinc.org/2317-6/"
          }
        ]
      },
      "request": {
        "method": "POST",
        "url": "Observation"
      }
    },
    {
      "fullUrl": "urn:uuid:cfb641bb-661b-43ad-9354-89311eede57b",
      "resource": {
        "resourceType": "List",
        "id": "cfb641bb-661b-43ad-9354-89311eede57b",
        "contained": [
          {
            "resourceType": "FamilyMemberHistory",
            "id": "fmh-4",
            "status": "completed",
            "patient": {
              "reference": "Patient/f1b492f3-7922-4bb9-8975-66292cd5fb61"
            },
            "relationship": {
              "coding": [
                {
                  "system": "http://snomed.info/sct",
                  "code": "394860006",
                  "display": "Distant relative"
                }
              ]
            },
            "condition": [
              {
                "code": {
                  "coding": [
                    {
                      "system": "http://snomed.info/sct",
                      "code": "266894000",
                      "display": "FH: Cardiovascular disease"
                    }
                  ]
                }
              }
            ]
          }
        ],
        "status": "current",
        "mode": "snapshot",
        "code": {
          "coding": [
            {
              "system": "http://loinc.org",
              "code": "8670-2",
              "display": "History of family member diseases"
            }
          ]
        },
        "subject": [
          {
            "reference": "Patient/f1b492f3-7922-4bb9-8975-66292cd5fb61"
          }
        ],
        "entry": [
          {
            "item": {
              "reference": "#fmh-4"
            }
          }
        ]
      },
      "request": {
        "method": "POST",
        "url": "FamilyMemberHistory"
      }
    }
  ]
}