{
  "resourceType": "Bundle",
  "type": "transaction",
  "entry": [
    {
      "fullUrl": "urn:uuid:6cc5aa87-3f9a-4234-abb2-973b00a54701",
      "resource": {
        "resourceType": "Patient",
        "id": "6cc5aa87-3f9a-4234-abb2-973b00a54701",
        "name": [
          {
            "family": "Thompson",
            "given": [
              "Ethan"
            ]
          }
        ],
        "gender": "male",
        "birthDate": "2015-01-01",
        "address": [
          {}
        ]
      },
      "request": {
        "method": "POST",
        "url": "Patient"
      }
    },
    {
      "fullUrl": "urn:uuid:7d89790b-0356-481c-a9ea-eb4f9f9472f3",
      "resource": {
        "resourceType": "Encounter",
        "id": "7d89790b-0356-481c-a9ea-eb4f9f9472f3",
        "identifier": [
          {
            "use": "temp",
            "value": "Encounter_Ethan Thompson_20251023095629"
          }
        ],
        "status": "completed",
        "priority": {
          "coding": [
            {
              "system": "http://snomed.info/sct",
              "code": "17621005",
              "display": "Normal"
            }
          ]
        },
        "type": [
          {
            "coding": [
              {
                "system": "http://snomed.info/sct",
                "code": "11429006",
                "display": "Consultation"
              }
            ]
          }
        ],
        "subject": {
          "reference": "Patient/6cc5aa87-3f9a-4234-abb2-973b00a54701",
          "display": "Ethan Thompson"
        },
        "reason": [
          {
            "value": [
              {
                "concept": {
                  "text": "complaints of occasional blurred vision and mild leg pain"
                }
              }
            ]
          }
        ]
      },
      "request": {
        "method": "POST",
        "url": "Encounter"
      }
    },
    {
      "fullUrl": "urn:uuid:a3b511d3-84cc-4abd-949d-8283b192ab17",
      "resource": {
        "resourceType": "Observation",
        "id": "a3b511d3-84cc-4abd-949d-8283b192ab17",
        "status": "final",
        "category": [
          {
            "coding": [
              {
                "system": "http://terminology.hl7.org/CodeSystem/observation-category",
                "code": "laboratory",
                "display": "Laboratory"
              }
            ],
            "text": "Laboratory"
          }
        ],
        "code": {
          "coding": [
            {
              "system": "http://loinc.org",
              "code": "2428-1",
              "display": "Hcys SerPl-mCnc"
            }
          ],
          "text": "Homocysteine"
        },
        "subject": {
          "reference": "Patient/6cc5aa87-3f9a-4234-abb2-973b00a54701"
        },
        "encounter": {
          "reference": "Encounter/7d89790b-0356-481c-a9ea-eb4f9f9472f3"
        },
        "effectiveDateTime": "2025-10-16",
        "valueQuantity": {
          "value": 15.0,
          "unit": "micromoles per liter",
          "system": "http://unitsofmeasure.org",
          "code": "micromoles per liter"
        },
        "interpretation": [
          {
            "coding": [
              {
                "system": "http://terminology.hl7.org/CodeSystem/v3-ObservationInterpretation",
                "code": "H",
                "display": "High"
              }
            ]
          }
        ],
        "note": [
          {
            "text": "Definition: https://loinc.org/2428-1/"
          }
        ]
      },
      "request": {
        "method": "POST",
        "url": "Observation"
      }
    },
    {
      "fullUrl": "urn:uuid:00788802-0b73-4d7f-92f5-2d55f702af39",
      "resource": {
        "resourceType": "Observation",
        "id": "00788802-0b73-4d7f-92f5-2d55f702af39",
        "status": "final",
        "category": [
          {
            "coding": [
              {
                "system": "http://terminology.hl7.org/CodeSystem/observation-category",
                "code": "laboratory",
                "display": "Laboratory"
              }
            ],
            "text": "Laboratory"
          }
        ],
        "code": {
          "coding": [
            {
              "system": "http://loinc.org",
              "code": "58410-2",
              "display": "Complete blood count panel"
            }
          ],
          "text": "Complete Blood Count"
        },
        "subject": {
          "reference": "Patient/6cc5aa87-3f9a-4234-abb2-973b00a54701"
        },
        "encounter": {
          "reference": "Encounter/7d89790b-0356-481c-a9ea-eb4f9f9472f3"
        },
        "effectiveDateTime": "2025-10-16",
        "interpretation": [
          {
            "coding": [
              {
                "system": "http://terminology.hl7.org/CodeSystem/v3-ObservationInterpretation",
                "code": "N",
                "display": "Normal"
              }
            ]
          }
        ],
        "note": [
          {
            "text": "Definition: https://loinc.org/58410-2/"
          }
        ]
      },
      "request": {
        "method": "POST",
        "url": "Observation"
      }
    },
    {
      "fullUrl": "urn:uuid:7a00bff0-9713-4534-9d35-2b850099e7d5",
      "resource": {
        "resourceType": "Observation",
        "id": "7a00bff0-9713-4534-9d35-2b850099e7d5",
        "status": "final",
        "category": [
          {
            "coding": [
              {
                "system": "http://terminology.hl7.org/CodeSystem/observation-category",
                "code": "exam",
                "display": "Exam"
              }
            ],
            "text": "Exam"
          }
        ],
        "code": {
          "coding": [
            {
              "system": "http://snomed.info/sct",
              "code": "72436007",
              "display": "Blurred disc margin"
            }
          ],
          "text": "Blurred Vision"
        },
        "subject": {
          "reference": "Patient/6cc5aa87-3f9a-4234-abb2-973b00a54701"
        },
        "encounter": {
          "reference": "Encounter/7d89790b-0356-481c-a9ea-eb4f9f9472f3"
        },
        "effectivePeriod": {
          "start": "2025-10-16"
        },
        "valueBoolean": true,
        "note": [
          {
            "text": "Definition: https://snomed.info/id/72436007"
          }
        ]
      },
      "request": {
        "method": "POST",
        "url": "Observation"
      }
    },
    {
      "fullUrl": "urn:uuid:eb4e776d-7da5-4a25-bc83-692bce4d4c14",
      "resource": {
        "resourceType": "Observation",
        "id": "eb4e776d-7da5-4a25-bc83-692bce4d4c14",
        "status": "final",
        "category": [
          {
            "coding": [
              {
                "system": "http://terminology.hl7.org/CodeSystem/observation-category",
                "code": "exam",
                "display": "Exam"
              }
            ],
            "text": "Exam"
          }
        ],
        "code": {
          "coding": [
            {
              "system": "http://snomed.info/sct",
              "code": "426469008",
              "display": "Pain radiating to left leg"
            }
          ],
          "text": "Leg Pain"
        },
        "subject": {
          "reference": "Patient/6cc5aa87-3f9a-4234-abb2-973b00a54701"
        },
        "encounter": {
          "reference": "Encounter/7d89790b-0356-481c-a9ea-eb4f9f9472f3"
        },
        "effectivePeriod": {
          "start": "2025-10-16"
        },
        "valueBoolean": true,
        "note": [
          {
            "text": "Definition: https://snomed.info/id/426469008"
          }
        ]
      },
      "request": {
        "method": "POST",
        "url": "Observation"
      }
    },
    {
      "fullUrl": "urn:uuid:22c83785-89c0-40a1-a3c2-5a886f0d7c9a",
      "resource": {
        "resourceType": "Observation",
        "id": "22c83785-89c0-40a1-a3c2-5a886f0d7c9a",
        "status": "final",
        "category": [
          {
            "coding": [
              {
                "system": "http://terminology.hl7.org/CodeSystem/observation-category",
                "code": "vital-signs",
                "display": "Vital Signs"
              }
            ],
            "text": "Vital Signs"
          }
        ],
        "code": {
          "coding": [
            {
              "system": "http://loinc.org",
              "code": "8310-5",
              "display": "Body temperature"
            }
          ],
          "text": "temperature"
        },
        "subject": {
          "reference": "Patient/6cc5aa87-3f9a-4234-abb2-973b00a54701"
        },
        "encounter": {
          "reference": "Encounter/7d89790b-0356-481c-a9ea-eb4f9f9472f3"
        },
        "effectiveDateTime": "2025-10-16",
        "valueQuantity": {
          "value": 37.0,
          "unit": "degrees Celsius",
          "system": "http://unitsofmeasure.org",
          "code": "degrees Celsius"
        },
        "interpretation": [
          {
            "coding": [
              {
                "system": "http://terminology.hl7.org/CodeSystem/v3-ObservationInterpretation",
                "code": "N",
                "display": "Normal"
              }
            ],
            "text": "Normal"
          }
        ]
      },
      "request": {
        "method": "POST",
        "url": "Observation"
      }
    },
    {
      "fullUrl": "urn:uuid:483cff98-ec76-47a5-99a1-550fb440d9f3",
      "resource": {
        "resourceType": "Observation",
        "id": "483cff98-ec76-47a5-99a1-550fb440d9f3",
        "status": "final",
        "category": [
          {
            "coding": [
              {
                "system": "http://terminology.hl7.org/CodeSystem/observation-category",
                "code": "vital-signs",
                "display": "Vital Signs"
              }
            ],
            "text": "Vital Signs"
          }
        ],
        "code": {
          "coding": [
            {
              "system": "http://loinc.org",
              "code": "62733-1",
              "display": "PhenX - respiratory - pulse oximetry - rest protocol 091101"
            }
          ],
          "text": "pulse"
        },
        "subject": {
          "reference": "Patient/6cc5aa87-3f9a-4234-abb2-973b00a54701"
        },
        "encounter": {
          "reference": "Encounter/7d89790b-0356-481c-a9ea-eb4f9f9472f3"
        },
        "effectiveDateTime": "2025-10-16",
        "valueQuantity": {
          "value": 80.0,
          "unit": "beats per minute",
          "system": "http://unitsofmeasure.org",
          "code": "beats per minute"
        },
        "interpretation": [
          {
            "coding": [
              {
                "system": "http://terminology.hl7.org/CodeSystem/v3-ObservationInterpretation",
                "code": "N",
                "display": "Normal"
              }
            ],
            "text": "Normal"
          }
        ]
      },
      "request": {
        "method": "POST",
        "url": "Observation"
      }
    },
    {
      "fullUrl": "urn:uuid:7f06d9f8-1844-4488-a79f-8ab084fbd9ca",
      "resource": {
        "resourceType": "Observation",
        "id": "7f06d9f8-1844-4488-a79f-8ab084fbd9ca",
        "status": "final",
        "category": [
          {
            "coding": [
              {
                "system": "http://terminology.hl7.org/CodeSystem/observation-category",
                "code": "vital-signs",
                "display": "Vital Signs"
              }
            ],
            "text": "Vital Signs"
          }
        ],
        "code": {
          "coding": [
            {
              "system": "http://loinc.org",
              "code": "18684-1",
              "display": "Blood pressure"
            }
          ],
          "text": "blood pressure"
        },
        "subject": {
          "reference": "Patient/6cc5aa87-3f9a-4234-abb2-973b00a54701"
        },
        "encounter": {
          "reference": "Encounter/7d89790b-0356-481c-a9ea-eb4f9f9472f3"
        },
        "effectiveDateTime": "2025-10-16",
        "valueQuantity": {
          "value": 100.0,
          "unit": "mmHg",
          "system": "http://unitsofmeasure.org",
          "code": "mmHg"
        },
        "interpretation": [
          {
            "coding": [
              {
                "system": "http://terminology.hl7.org/CodeSystem/v3-ObservationInterpretation",
                "code": "N",
                "display": "Normal"
              }
            ],
            "text": "Normal"
          }
        ]
      },
      "request": {
        "method": "POST",
        "url": "Observation"
      }
    },
    {
      "fullUrl": "urn:uuid:1a5e743f-4219-4d90-8571-4984bc7471ac",
      "resource": {
        "resourceType": "Observation",
        "id": "1a5e743f-4219-4d90-8571-4984bc7471ac",
        "status": "final",
        "category": [
          {
            "coding": [
              {
                "system": "http://terminology.hl7.org/CodeSystem/observation-category",
                "code": "vital-signs",
                "display": "Vital Signs"
              }
            ],
            "text": "Vital Signs"
          }
        ],
        "code": {
          "coding": [
            {
              "system": "http://loinc.org",
              "code": "9279-1",
              "display": "Resp rate"
            }
          ],
          "text": "respiratory rate"
        },
        "subject": {
          "reference": "Patient/6cc5aa87-3f9a-4234-abb2-973b00a54701"
        },
        "encounter": {
          "reference": "Encounter/7d89790b-0356-481c-a9ea-eb4f9f9472f3"
        },
        "effectiveDateTime": "2025-10-16",
        "valueQuantity": {
          "value": 18.0,
          "unit": "breaths per minute",
          "system": "http://unitsofmeasure.org",
          "code": "breaths per minute"
        },
        "interpretation": [
          {
            "coding": [
              {
                "system": "http://terminology.hl7.org/CodeSystem/v3-ObservationInterpretation",
                "code": "N",
                "display": "Normal"
              }
            ],
            "text": "Normal"
          }
        ]
      },
      "request": {
        "method": "POST",
        "url": "Observation"
      }
    },
    {
      "fullUrl": "urn:uuid:1d5ded1b-dcd1-42af-b91f-c34d476f88c1",
      "resource": {
        "resourceType": "Observation",
        "id": "1d5ded1b-dcd1-42af-b91f-c34d476f88c1",
        "status": "final",
        "category": [
          {
            "coding": [
              {
                "system": "http://terminology.hl7.org/CodeSystem/observation-category",
                "code": "vital-signs",
                "display": "Vital Signs"
              }
            ],
            "text": "Vital Signs"
          }
        ],
        "code": {
          "coding": [
            {
              "system": "http://loinc.org",
              "code": "2717-7",
              "display": "OxyHgb MFr Plas"
            }
          ],
          "text": "oxygen saturation"
        },
        "subject": {
          "reference": "Patient/6cc5aa87-3f9a-4234-abb2-973b00a54701"
        },
        "encounter": {
          "reference": "Encounter/7d89790b-0356-481c-a9ea-eb4f9f9472f3"
        },
        "effectiveDateTime": "2025-10-16",
        "valueQuantity": {
          "value": 98.0,
          "unit": "%",
          "system": "http://unitsofmeasure.org",
          "code": "%"
        },
        "interpretation": [
          {
            "coding": [
              {
                "system": "http://terminology.hl7.org/CodeSystem/v3-ObservationInterpretation",
                "code": "N",
                "display": "Normal"
              }
            ],
            "text": "Normal"
          }
        ]
      },
      "request": {
        "method": "POST",
        "url": "Observation"
      }
    },
    {
      "fullUrl": "urn:uuid:feef848f-0554-4ae8-9084-68064da9c3a0",
      "resource": {
        "resourceType": "Observation",
        "id": "feef848f-0554-4ae8-9084-68064da9c3a0",
        "status": "final",
        "category": [
          {
            "coding": [
              {
                "system": "http://terminology.hl7.org/CodeSystem/observation-category",
                "code": "vital-signs",
                "display": "Vital Signs"
              }
            ],
            "text": "Vital Signs"
          }
        ],
        "code": {
          "coding": [
            {
              "system": "http://loinc.org",
              "code": "92998-4",
              "display": "Lower segment"
            }
          ],
          "text": "height"
        },
        "subject": {
          "reference": "Patient/6cc5aa87-3f9a-4234-abb2-973b00a54701"
        },
        "encounter": {
          "reference": "Encounter/7d89790b-0356-481c-a9ea-eb4f9f9472f3"
        },
        "effectiveDateTime": "2025-10-16",
        "valueQuantity": {
          "value": 140.0,
          "unit": "cm",
          "system": "http://unitsofmeasure.org",
          "code": "cm"
        }
      },
      "request": {
        "method": "POST",
        "url": "Observation"
      }
    },
    {
      "fullUrl": "urn:uuid:233e1220-b8d3-4da0-b3d4-27dc80b4fcd5",
      "resource": {
        "resourceType": "Observation",
        "id": "233e1220-b8d3-4da0-b3d4-27dc80b4fcd5",
        "status": "final",
        "category": [
          {
            "coding": [
              {
                "system": "http://terminology.hl7.org/CodeSystem/observation-category",
                "code": "vital-signs",
                "display": "Vital Signs"
              }
            ],
            "text": "Vital Signs"
          }
        ],
        "code": {
          "coding": [
            {
              "system": "http://loinc.org",
              "code": "8337-8",
              "display": "Bdy weight special circumstances"
            }
          ],
          "text": "weight"
        },
        "subject": {
          "reference": "Patient/6cc5aa87-3f9a-4234-abb2-973b00a54701"
        },
        "encounter": {
          "reference": "Encounter/7d89790b-0356-481c-a9ea-eb4f9f9472f3"
        },
        "effectiveDateTime": "2025-10-16",
        "valueQuantity": {
          "value": 35.0,
          "unit": "kg",
          "system": "http://unitsofmeasure.org",
          "code": "kg"
        }
      },
      "request": {
        "method": "POST",
        "url": "Observation"
      }
    },
    {
      "fullUrl": "urn:uuid:dc81a812-f980-4400-9be9-ea095e66e52f",
      "resource": {
        "resourceType": "Observation",
        "id": "dc81a812-f980-4400-9be9-ea095e66e52f",
        "status": "final",
        "category": [
          {
            "coding": [
              {
                "system": "http://terminology.hl7.org/CodeSystem/observation-category",
                "code": "vital-signs",
                "display": "Vital Signs"
              }
            ],
            "text": "Vital Signs"
          }
        ],
        "code": {
          "coding": [
            {
              "system": "http://loinc.org",
              "code": "97057-4",
              "display": "Body mass index"
            }
          ],
          "text": "body mass index"
        },
        "subject": {
          "reference": "Patient/6cc5aa87-3f9a-4234-abb2-973b00a54701"
        },
        "encounter": {
          "reference": "Encounter/7d89790b-0356-481c-a9ea-eb4f9f9472f3"
        },
        "effectiveDateTime": "2025-10-16"
      },
      "request": {
        "method": "POST",
        "url": "Observation"
      }
    },
    {
      "fullUrl": "urn:uuid:5b9070b6-7884-437a-9758-387ea1e8b675",
      "resource": {
        "resourceType": "Encounter",
        "id": "5b9070b6-7884-437a-9758-387ea1e8b675",
        "identifier": [
          {
            "use": "temp",
            "value": "Encounter_Ethan Thompson_20251023095638"
          }
        ],
        "status": "completed",
        "priority": {
          "coding": [
            {
              "system": "http://snomed.info/sct",
              "code": "17621005",
              "display": "Normal"
            }
          ]
        },
        "type": [
          {
            "coding": [
              {
                "system": "http://snomed.info/sct",
                "code": "11429006",
                "display": "Consultation"
              }
            ]
          }
        ],
        "subject": {
          "reference": "Patient/6cc5aa87-3f9a-4234-abb2-973b00a54701",
          "display": "Ethan Thompson"
        },
        "reason": [
          {
            "value": [
              {
                "concept": {
                  "text": "concern about occasional clumsiness"
                }
              }
            ]
          }
        ]
      },
      "request": {
        "method": "POST",
        "url": "Encounter"
      }
    },
    {
      "fullUrl": "urn:uuid:63f01a28-a065-45b6-b10c-83212b46563b",
      "resource": {
        "resourceType": "Observation",
        "id": "63f01a28-a065-45b6-b10c-83212b46563b",
        "status": "final",
        "category": [
          {
            "coding": [
              {
                "system": "http://terminology.hl7.org/CodeSystem/observation-category",
                "code": "laboratory",
                "display": "Laboratory"
              }
            ],
            "text": "Laboratory"
          }
        ],
        "code": {
          "coding": [
            {
              "system": "http://loinc.org",
              "code": "105516-9",
              "display": "LDL from lipid profile"
            }
          ],
          "text": "Lipid Profile"
        },
        "subject": {
          "reference": "Patient/6cc5aa87-3f9a-4234-abb2-973b00a54701"
        },
        "encounter": {
          "reference": "Encounter/5b9070b6-7884-437a-9758-387ea1e8b675"
        },
        "effectiveDateTime": "2025-08-16",
        "interpretation": [
          {
            "coding": [
              {
                "system": "http://terminology.hl7.org/CodeSystem/v3-ObservationInterpretation",
                "code": "N",
                "display": "Normal"
              }
            ]
          }
        ],
        "note": [
          {
            "text": "Definition: https://loinc.org/105516-9/"
          }
        ]
      },
      "request": {
        "method": "POST",
        "url": "Observation"
      }
    },
    {
      "fullUrl": "urn:uuid:840c09e1-25c3-45c6-ba18-e726540418a7",
      "resource": {
        "resourceType": "Observation",
        "id": "840c09e1-25c3-45c6-ba18-e726540418a7",
        "status": "final",
        "category": [
          {
            "coding": [
              {
                "system": "http://terminology.hl7.org/CodeSystem/observation-category",
                "code": "laboratory",
                "display": "Laboratory"
              }
            ],
            "text": "Laboratory"
          }
        ],
        "code": {
          "coding": [
            {
              "system": "http://loinc.org",
              "code": "unknown",
              "display": "Kidney Function Tests"
            }
          ],
          "text": "Kidney Function Tests"
        },
        "subject": {
          "reference": "Patient/6cc5aa87-3f9a-4234-abb2-973b00a54701"
        },
        "encounter": {
          "reference": "Encounter/5b9070b6-7884-437a-9758-387ea1e8b675"
        },
        "effectiveDateTime": "2025-08-16",
        "interpretation": [
          {
            "coding": [
              {
                "system": "http://terminology.hl7.org/CodeSystem/v3-ObservationInterpretation",
                "code": "N",
                "display": "Normal"
              }
            ]
          }
        ]
      },
      "request": {
        "method": "POST",
        "url": "Observation"
      }
    },
    {
      "fullUrl": "urn:uuid:23e83772-2ad0-4a1c-9dc5-769d1926af19",
      "resource": {
        "resourceType": "Observation",
        "id": "23e83772-2ad0-4a1c-9dc5-769d1926af19",
        "status": "final",
        "category": [
          {
            "coding": [
              {
                "system": "http://terminology.hl7.org/CodeSystem/observation-category",
                "code": "exam",
                "display": "Exam"
              }
            ],
            "text": "Exam"
          }
        ],
        "code": {
          "coding": [
            {
              "system": "http://snomed.info/sct",
              "code": "7006003",
              "display": "Clumsiness"
            }
          ],
          "text": "Clumsiness"
        },
        "subject": {
          "reference": "Patient/6cc5aa87-3f9a-4234-abb2-973b00a54701"
        },
        "encounter": {
          "reference": "Encounter/5b9070b6-7884-437a-9758-387ea1e8b675"
        },
        "effectivePeriod": {
          "start": "2025-08-16"
        },
        "valueBoolean": true,
        "note": [
          {
            "text": "Definition: https://snomed.info/id/7006003"
          }
        ]
      },
      "request": {
        "method": "POST",
        "url": "Observation"
      }
    },
    {
      "fullUrl": "urn:uuid:d6075029-17fe-4557-9d12-eeff5cd622ad",
      "resource": {
        "resourceType": "List",
        "id": "d6075029-17fe-4557-9d12-eeff5cd622ad",
        "contained": [
          {
            "resourceType": "FamilyMemberHistory",
            "id": "fmh-4",
            "status": "completed",
            "patient": {
              "reference": "Patient/6cc5aa87-3f9a-4234-abb2-973b00a54701"
            },
            "relationship": {
              "coding": [
                {
                  "system": "http://snomed.info/sct",
                  "code": "27733009",
                  "display": "Sister"
                }
              ]
            },
            "deceasedBoolean": false,
            "condition": []
          }
        ],
        "status": "current",
        "mode": "snapshot",
        "code": {
          "coding": [
            {
              "system": "http://loinc.org",
              "code": "8670-2",
              "display": "History of family member diseases"
            }
          ]
        },
        "subject": [
          {
            "reference": "Patient/6cc5aa87-3f9a-4234-abb2-973b00a54701"
          }
        ],
        "note": [
          {
            "text": "Both parents are alive and healthy, with no known chronic medical conditions."
          }
        ],
        "entry": [
          {
            "item": {
              "reference": "#fmh-4"
            }
          }
        ]
      },
      "request": {
        "method": "POST",
        "url": "FamilyMemberHistory"
      }
    }
  ]
}