{
  "resourceType": "Bundle",
  "type": "transaction",
  "entry": [
    {
      "fullUrl": "urn:uuid:1db7c2bf-32fc-4ba3-b8b0-a489b65fa42b",
      "resource": {
        "resourceType": "Patient",
        "id": "1db7c2bf-32fc-4ba3-b8b0-a489b65fa42b",
        "name": [
          {
            "family": "Thompson",
            "given": [
              "Ethan"
            ]
          }
        ],
        "gender": "male",
        "birthDate": "2020-01-01",
        "address": [
          {}
        ]
      },
      "request": {
        "method": "POST",
        "url": "Patient"
      }
    },
    {
      "fullUrl": "urn:uuid:d571289f-37bb-4097-8a37-d14fdf000ee3",
      "resource": {
        "resourceType": "Encounter",
        "id": "d571289f-37bb-4097-8a37-d14fdf000ee3",
        "identifier": [
          {
            "use": "temp",
            "value": "Encounter_Ethan Thompson_20251023103151"
          }
        ],
        "status": "completed",
        "priority": {
          "coding": [
            {
              "system": "http://snomed.info/sct",
              "code": "17621005",
              "display": "Normal"
            }
          ]
        },
        "type": [
          {
            "coding": [
              {
                "system": "http://snomed.info/sct",
                "code": "11429006",
                "display": "Consultation"
              }
            ]
          }
        ],
        "subject": {
          "reference": "Patient/1db7c2bf-32fc-4ba3-b8b0-a489b65fa42b",
          "display": "Ethan Thompson"
        },
        "reason": [
          {
            "value": [
              {
                "concept": {
                  "text": "concerns about appetite and eating habits"
                }
              }
            ]
          }
        ]
      },
      "request": {
        "method": "POST",
        "url": "Encounter"
      }
    },
    {
      "fullUrl": "urn:uuid:1ba5a891-ffc1-4105-acea-5fbebf445ebb",
      "resource": {
        "resourceType": "Observation",
        "id": "1ba5a891-ffc1-4105-acea-5fbebf445ebb",
        "status": "final",
        "category": [
          {
            "coding": [
              {
                "system": "http://terminology.hl7.org/CodeSystem/observation-category",
                "code": "laboratory",
                "display": "Laboratory"
              }
            ],
            "text": "Laboratory"
          }
        ],
        "code": {
          "coding": [
            {
              "system": "http://loinc.org",
              "code": "62854-5",
              "display": "PhenX - glycosylated hemoglobin assay reflecting long-term glucose concentration protocol 140901"
            }
          ],
          "text": "Hemoglobin"
        },
        "subject": {
          "reference": "Patient/1db7c2bf-32fc-4ba3-b8b0-a489b65fa42b"
        },
        "encounter": {
          "reference": "Encounter/d571289f-37bb-4097-8a37-d14fdf000ee3"
        },
        "effectiveDateTime": "2025-10-16",
        "valueQuantity": {
          "value": 13.5,
          "unit": "grams per deciliter",
          "system": "http://unitsofmeasure.org",
          "code": "grams per deciliter"
        },
        "interpretation": [
          {
            "coding": [
              {
                "system": "http://terminology.hl7.org/CodeSystem/v3-ObservationInterpretation",
                "code": "N",
                "display": "Normal"
              }
            ]
          }
        ],
        "note": [
          {
            "text": "Definition: https://loinc.org/62854-5/"
          }
        ]
      },
      "request": {
        "method": "POST",
        "url": "Observation"
      }
    },
    {
      "fullUrl": "urn:uuid:0d4bee6f-b344-47f6-96a8-93f9a2df9542",
      "resource": {
        "resourceType": "Observation",
        "id": "0d4bee6f-b344-47f6-96a8-93f9a2df9542",
        "status": "final",
        "category": [
          {
            "coding": [
              {
                "system": "http://terminology.hl7.org/CodeSystem/observation-category",
                "code": "laboratory",
                "display": "Laboratory"
              }
            ],
            "text": "Laboratory"
          }
        ],
        "code": {
          "coding": [
            {
              "system": "http://loinc.org",
              "code": "41986-1",
              "display": "Hematocrit test status &or results"
            }
          ],
          "text": "Hematocrit"
        },
        "subject": {
          "reference": "Patient/1db7c2bf-32fc-4ba3-b8b0-a489b65fa42b"
        },
        "encounter": {
          "reference": "Encounter/d571289f-37bb-4097-8a37-d14fdf000ee3"
        },
        "effectiveDateTime": "2025-10-16",
        "valueQuantity": {
          "value": 40.0,
          "unit": "%",
          "system": "http://unitsofmeasure.org",
          "code": "%"
        },
        "interpretation": [
          {
            "coding": [
              {
                "system": "http://terminology.hl7.org/CodeSystem/v3-ObservationInterpretation",
                "code": "N",
                "display": "Normal"
              }
            ]
          }
        ],
        "note": [
          {
            "text": "Definition: https://loinc.org/41986-1/"
          }
        ]
      },
      "request": {
        "method": "POST",
        "url": "Observation"
      }
    },
    {
      "fullUrl": "urn:uuid:4082fcc0-b0c9-4668-9506-145d26afe459",
      "resource": {
        "resourceType": "Observation",
        "id": "4082fcc0-b0c9-4668-9506-145d26afe459",
        "status": "final",
        "category": [
          {
            "coding": [
              {
                "system": "http://terminology.hl7.org/CodeSystem/observation-category",
                "code": "laboratory",
                "display": "Laboratory"
              }
            ],
            "text": "Laboratory"
          }
        ],
        "code": {
          "coding": [
            {
              "system": "http://loinc.org",
              "code": "74775-8",
              "display": "Platelet # PRP Auto"
            }
          ],
          "text": "Platelet count"
        },
        "subject": {
          "reference": "Patient/1db7c2bf-32fc-4ba3-b8b0-a489b65fa42b"
        },
        "encounter": {
          "reference": "Encounter/d571289f-37bb-4097-8a37-d14fdf000ee3"
        },
        "effectiveDateTime": "2025-10-16",
        "valueQuantity": {
          "value": 250000.0,
          "unit": "per microliter",
          "system": "http://unitsofmeasure.org",
          "code": "per microliter"
        },
        "interpretation": [
          {
            "coding": [
              {
                "system": "http://terminology.hl7.org/CodeSystem/v3-ObservationInterpretation",
                "code": "N",
                "display": "Normal"
              }
            ]
          }
        ],
        "note": [
          {
            "text": "Definition: https://loinc.org/74775-8/"
          }
        ]
      },
      "request": {
        "method": "POST",
        "url": "Observation"
      }
    },
    {
      "fullUrl": "urn:uuid:e080f39f-b1f0-49a3-9ea0-0f2f338389a6",
      "resource": {
        "resourceType": "Observation",
        "id": "e080f39f-b1f0-49a3-9ea0-0f2f338389a6",
        "status": "final",
        "category": [
          {
            "coding": [
              {
                "system": "http://terminology.hl7.org/CodeSystem/observation-category",
                "code": "exam",
                "display": "Exam"
              }
            ],
            "text": "Exam"
          }
        ],
        "code": {
          "coding": [
            {
              "system": "http://snomed.info/sct",
              "code": "72405004",
              "display": "Increased appetite"
            }
          ],
          "text": "Increased appetite"
        },
        "subject": {
          "reference": "Patient/1db7c2bf-32fc-4ba3-b8b0-a489b65fa42b"
        },
        "encounter": {
          "reference": "Encounter/d571289f-37bb-4097-8a37-d14fdf000ee3"
        },
        "effectivePeriod": {
          "start": "2025-10-16"
        },
        "valueBoolean": true,
        "note": [
          {
            "text": "Definition: https://snomed.info/id/72405004"
          }
        ]
      },
      "request": {
        "method": "POST",
        "url": "Observation"
      }
    },
    {
      "fullUrl": "urn:uuid:06cff876-d658-465a-af3c-a0683f6bae9a",
      "resource": {
        "resourceType": "Observation",
        "id": "06cff876-d658-465a-af3c-a0683f6bae9a",
        "status": "final",
        "category": [
          {
            "coding": [
              {
                "system": "http://terminology.hl7.org/CodeSystem/observation-category",
                "code": "exam",
                "display": "Exam"
              }
            ],
            "text": "Exam"
          }
        ],
        "code": {
          "coding": [
            {
              "system": "http://snomed.info/sct",
              "code": "162294008",
              "display": "Has difficulty with speech"
            }
          ],
          "text": "Difficulty with speech"
        },
        "subject": {
          "reference": "Patient/1db7c2bf-32fc-4ba3-b8b0-a489b65fa42b"
        },
        "encounter": {
          "reference": "Encounter/d571289f-37bb-4097-8a37-d14fdf000ee3"
        },
        "effectivePeriod": {
          "start": "2025-10-16"
        },
        "valueBoolean": true,
        "note": [
          {
            "text": "Definition: https://snomed.info/id/162294008"
          }
        ]
      },
      "request": {
        "method": "POST",
        "url": "Observation"
      }
    },
    {
      "fullUrl": "urn:uuid:8d6d23d4-0606-4a73-b832-bee098b977f4",
      "resource": {
        "resourceType": "Observation",
        "id": "8d6d23d4-0606-4a73-b832-bee098b977f4",
        "status": "final",
        "category": [
          {
            "coding": [
              {
                "system": "http://terminology.hl7.org/CodeSystem/observation-category",
                "code": "exam",
                "display": "Exam"
              }
            ],
            "text": "Exam"
          }
        ],
        "code": {
          "coding": [
            {
              "system": "http://snomed.info/sct",
              "code": "448891000124109",
              "display": "Less than one week"
            }
          ],
          "text": "Less active than peers"
        },
        "subject": {
          "reference": "Patient/1db7c2bf-32fc-4ba3-b8b0-a489b65fa42b"
        },
        "encounter": {
          "reference": "Encounter/d571289f-37bb-4097-8a37-d14fdf000ee3"
        },
        "effectivePeriod": {
          "start": "2025-10-16"
        },
        "valueBoolean": true,
        "note": [
          {
            "text": "Definition: https://snomed.info/id/448891000124109"
          }
        ]
      },
      "request": {
        "method": "POST",
        "url": "Observation"
      }
    },
    {
      "fullUrl": "urn:uuid:2a4ad610-fe9a-4ee8-ac9b-e18da5c381ba",
      "resource": {
        "resourceType": "Observation",
        "id": "2a4ad610-fe9a-4ee8-ac9b-e18da5c381ba",
        "status": "final",
        "category": [
          {
            "coding": [
              {
                "system": "http://terminology.hl7.org/CodeSystem/observation-category",
                "code": "vital-signs",
                "display": "Vital Signs"
              }
            ],
            "text": "Vital Signs"
          }
        ],
        "code": {
          "coding": [
            {
              "system": "http://loinc.org",
              "code": "8310-5",
              "display": "Body temperature"
            }
          ],
          "text": "temperature"
        },
        "subject": {
          "reference": "Patient/1db7c2bf-32fc-4ba3-b8b0-a489b65fa42b"
        },
        "encounter": {
          "reference": "Encounter/d571289f-37bb-4097-8a37-d14fdf000ee3"
        },
        "effectiveDateTime": "2025-10-16",
        "valueQuantity": {
          "value": 36.8,
          "unit": "degrees Celsius",
          "system": "http://unitsofmeasure.org",
          "code": "degrees Celsius"
        },
        "interpretation": [
          {
            "coding": [
              {
                "system": "http://terminology.hl7.org/CodeSystem/v3-ObservationInterpretation",
                "code": "N",
                "display": "Normal"
              }
            ],
            "text": "Normal"
          }
        ]
      },
      "request": {
        "method": "POST",
        "url": "Observation"
      }
    },
    {
      "fullUrl": "urn:uuid:255d1bac-6433-4521-aef2-95d14d299068",
      "resource": {
        "resourceType": "Observation",
        "id": "255d1bac-6433-4521-aef2-95d14d299068",
        "status": "final",
        "category": [
          {
            "coding": [
              {
                "system": "http://terminology.hl7.org/CodeSystem/observation-category",
                "code": "vital-signs",
                "display": "Vital Signs"
              }
            ],
            "text": "Vital Signs"
          }
        ],
        "code": {
          "coding": [
            {
              "system": "http://loinc.org",
              "code": "62733-1",
              "display": "PhenX - respiratory - pulse oximetry - rest protocol 091101"
            }
          ],
          "text": "pulse"
        },
        "subject": {
          "reference": "Patient/1db7c2bf-32fc-4ba3-b8b0-a489b65fa42b"
        },
        "encounter": {
          "reference": "Encounter/d571289f-37bb-4097-8a37-d14fdf000ee3"
        },
        "effectiveDateTime": "2025-10-16",
        "valueQuantity": {
          "value": 100.0,
          "unit": "beats per minute",
          "system": "http://unitsofmeasure.org",
          "code": "beats per minute"
        },
        "interpretation": [
          {
            "coding": [
              {
                "system": "http://terminology.hl7.org/CodeSystem/v3-ObservationInterpretation",
                "code": "N",
                "display": "Normal"
              }
            ],
            "text": "Normal"
          }
        ]
      },
      "request": {
        "method": "POST",
        "url": "Observation"
      }
    },
    {
      "fullUrl": "urn:uuid:20128b6c-5888-4adb-9b27-0aaf69947f91",
      "resource": {
        "resourceType": "Observation",
        "id": "20128b6c-5888-4adb-9b27-0aaf69947f91",
        "status": "final",
        "category": [
          {
            "coding": [
              {
                "system": "http://terminology.hl7.org/CodeSystem/observation-category",
                "code": "vital-signs",
                "display": "Vital Signs"
              }
            ],
            "text": "Vital Signs"
          }
        ],
        "code": {
          "coding": [
            {
              "system": "http://loinc.org",
              "code": "18684-1",
              "display": "Blood pressure"
            }
          ],
          "text": "blood pressure"
        },
        "subject": {
          "reference": "Patient/1db7c2bf-32fc-4ba3-b8b0-a489b65fa42b"
        },
        "encounter": {
          "reference": "Encounter/d571289f-37bb-4097-8a37-d14fdf000ee3"
        },
        "effectiveDateTime": "2025-10-16",
        "valueQuantity": {
          "value": 90.0,
          "unit": "mmHg",
          "system": "http://unitsofmeasure.org",
          "code": "mmHg"
        },
        "interpretation": [
          {
            "coding": [
              {
                "system": "http://terminology.hl7.org/CodeSystem/v3-ObservationInterpretation",
                "code": "N",
                "display": "Normal"
              }
            ],
            "text": "Normal"
          }
        ]
      },
      "request": {
        "method": "POST",
        "url": "Observation"
      }
    },
    {
      "fullUrl": "urn:uuid:0361a82f-1d76-4520-9bce-08ef192e37c1",
      "resource": {
        "resourceType": "Observation",
        "id": "0361a82f-1d76-4520-9bce-08ef192e37c1",
        "status": "final",
        "category": [
          {
            "coding": [
              {
                "system": "http://terminology.hl7.org/CodeSystem/observation-category",
                "code": "vital-signs",
                "display": "Vital Signs"
              }
            ],
            "text": "Vital Signs"
          }
        ],
        "code": {
          "coding": [
            {
              "system": "http://loinc.org",
              "code": "9279-1",
              "display": "Resp rate"
            }
          ],
          "text": "respiratory rate"
        },
        "subject": {
          "reference": "Patient/1db7c2bf-32fc-4ba3-b8b0-a489b65fa42b"
        },
        "encounter": {
          "reference": "Encounter/d571289f-37bb-4097-8a37-d14fdf000ee3"
        },
        "effectiveDateTime": "2025-10-16",
        "valueQuantity": {
          "value": 22.0,
          "unit": "breaths per minute",
          "system": "http://unitsofmeasure.org",
          "code": "breaths per minute"
        },
        "interpretation": [
          {
            "coding": [
              {
                "system": "http://terminology.hl7.org/CodeSystem/v3-ObservationInterpretation",
                "code": "N",
                "display": "Normal"
              }
            ],
            "text": "Normal"
          }
        ]
      },
      "request": {
        "method": "POST",
        "url": "Observation"
      }
    },
    {
      "fullUrl": "urn:uuid:d9516793-47e0-4963-8177-1ebe7d2701b9",
      "resource": {
        "resourceType": "Observation",
        "id": "d9516793-47e0-4963-8177-1ebe7d2701b9",
        "status": "final",
        "category": [
          {
            "coding": [
              {
                "system": "http://terminology.hl7.org/CodeSystem/observation-category",
                "code": "vital-signs",
                "display": "Vital Signs"
              }
            ],
            "text": "Vital Signs"
          }
        ],
        "code": {
          "coding": [
            {
              "system": "http://loinc.org",
              "code": "8337-8",
              "display": "Bdy weight special circumstances"
            }
          ],
          "text": "weight"
        },
        "subject": {
          "reference": "Patient/1db7c2bf-32fc-4ba3-b8b0-a489b65fa42b"
        },
        "encounter": {
          "reference": "Encounter/d571289f-37bb-4097-8a37-d14fdf000ee3"
        },
        "effectiveDateTime": "2025-10-16",
        "valueQuantity": {
          "value": 21.0,
          "unit": "kilograms",
          "system": "http://unitsofmeasure.org",
          "code": "kilograms"
        },
        "interpretation": [
          {
            "coding": [
              {
                "system": "http://terminology.hl7.org/CodeSystem/v3-ObservationInterpretation",
                "code": "N",
                "display": "Normal"
              }
            ],
            "text": "Normal"
          }
        ]
      },
      "request": {
        "method": "POST",
        "url": "Observation"
      }
    },
    {
      "fullUrl": "urn:uuid:13f9fb78-af53-4e29-b05f-37451821811d",
      "resource": {
        "resourceType": "Observation",
        "id": "13f9fb78-af53-4e29-b05f-37451821811d",
        "status": "final",
        "category": [
          {
            "coding": [
              {
                "system": "http://terminology.hl7.org/CodeSystem/observation-category",
                "code": "vital-signs",
                "display": "Vital Signs"
              }
            ],
            "text": "Vital Signs"
          }
        ],
        "code": {
          "coding": [
            {
              "system": "http://loinc.org",
              "code": "92998-4",
              "display": "Lower segment"
            }
          ],
          "text": "height"
        },
        "subject": {
          "reference": "Patient/1db7c2bf-32fc-4ba3-b8b0-a489b65fa42b"
        },
        "encounter": {
          "reference": "Encounter/d571289f-37bb-4097-8a37-d14fdf000ee3"
        },
        "effectiveDateTime": "2025-10-16",
        "valueQuantity": {
          "value": 110.0,
          "unit": "centimeters",
          "system": "http://unitsofmeasure.org",
          "code": "centimeters"
        },
        "interpretation": [
          {
            "coding": [
              {
                "system": "http://terminology.hl7.org/CodeSystem/v3-ObservationInterpretation",
                "code": "N",
                "display": "Normal"
              }
            ],
            "text": "Normal"
          }
        ]
      },
      "request": {
        "method": "POST",
        "url": "Observation"
      }
    },
    {
      "fullUrl": "urn:uuid:ddf97b8f-8140-4d85-91f3-6f679152075e",
      "resource": {
        "resourceType": "Observation",
        "id": "ddf97b8f-8140-4d85-91f3-6f679152075e",
        "status": "final",
        "category": [
          {
            "coding": [
              {
                "system": "http://terminology.hl7.org/CodeSystem/observation-category",
                "code": "vital-signs",
                "display": "Vital Signs"
              }
            ],
            "text": "Vital Signs"
          }
        ],
        "code": {
          "coding": [
            {
              "system": "http://loinc.org",
              "code": "97057-4",
              "display": "Body mass index"
            }
          ],
          "text": "body mass index"
        },
        "subject": {
          "reference": "Patient/1db7c2bf-32fc-4ba3-b8b0-a489b65fa42b"
        },
        "encounter": {
          "reference": "Encounter/d571289f-37bb-4097-8a37-d14fdf000ee3"
        },
        "effectiveDateTime": "2025-10-16",
        "interpretation": [
          {
            "coding": [
              {
                "system": "http://terminology.hl7.org/CodeSystem/v3-ObservationInterpretation",
                "code": "N",
                "display": "Normal"
              }
            ],
            "text": "Normal"
          }
        ]
      },
      "request": {
        "method": "POST",
        "url": "Observation"
      }
    },
    {
      "fullUrl": "urn:uuid:100f45ba-9a94-4909-b482-12fd0834f6aa",
      "resource": {
        "resourceType": "Observation",
        "id": "100f45ba-9a94-4909-b482-12fd0834f6aa",
        "status": "final",
        "category": [
          {
            "coding": [
              {
                "system": "http://terminology.hl7.org/CodeSystem/observation-category",
                "code": "vital-signs",
                "display": "Vital Signs"
              }
            ],
            "text": "Vital Signs"
          }
        ],
        "code": {
          "coding": [
            {
              "system": "http://loinc.org",
              "code": "2717-7",
              "display": "OxyHgb MFr Plas"
            }
          ],
          "text": "oxygen saturation"
        },
        "subject": {
          "reference": "Patient/1db7c2bf-32fc-4ba3-b8b0-a489b65fa42b"
        },
        "encounter": {
          "reference": "Encounter/d571289f-37bb-4097-8a37-d14fdf000ee3"
        },
        "effectiveDateTime": "2025-10-16",
        "valueQuantity": {
          "value": 98.0,
          "unit": "%",
          "system": "http://unitsofmeasure.org",
          "code": "%"
        },
        "interpretation": [
          {
            "coding": [
              {
                "system": "http://terminology.hl7.org/CodeSystem/v3-ObservationInterpretation",
                "code": "N",
                "display": "Normal"
              }
            ],
            "text": "Normal"
          }
        ]
      },
      "request": {
        "method": "POST",
        "url": "Observation"
      }
    },
    {
      "fullUrl": "urn:uuid:157c959c-1247-473a-8f7f-9cccd15c6868",
      "resource": {
        "resourceType": "Encounter",
        "id": "157c959c-1247-473a-8f7f-9cccd15c6868",
        "identifier": [
          {
            "use": "temp",
            "value": "Encounter_Ethan Thompson_20251023103201"
          }
        ],
        "status": "completed",
        "priority": {
          "coding": [
            {
              "system": "http://snomed.info/sct",
              "code": "17621005",
              "display": "Normal"
            }
          ]
        },
        "type": [
          {
            "coding": [
              {
                "system": "http://snomed.info/sct",
                "code": "11429006",
                "display": "Consultation"
              }
            ]
          }
        ],
        "subject": {
          "reference": "Patient/1db7c2bf-32fc-4ba3-b8b0-a489b65fa42b",
          "display": "Ethan Thompson"
        }
      },
      "request": {
        "method": "POST",
        "url": "Encounter"
      }
    },
    {
      "fullUrl": "urn:uuid:e253a1f4-e1f4-44d5-8125-89cb38e3cdbd",
      "resource": {
        "resourceType": "Observation",
        "id": "e253a1f4-e1f4-44d5-8125-89cb38e3cdbd",
        "status": "final",
        "category": [
          {
            "coding": [
              {
                "system": "http://terminology.hl7.org/CodeSystem/observation-category",
                "code": "exam",
                "display": "Exam"
              }
            ],
            "text": "Exam"
          }
        ],
        "code": {
          "coding": [
            {
              "system": "http://snomed.info/sct",
              "code": "17353009",
              "display": "Microbial growth rate, slow"
            }
          ],
          "text": "Slow growth rate"
        },
        "subject": {
          "reference": "Patient/1db7c2bf-32fc-4ba3-b8b0-a489b65fa42b"
        },
        "encounter": {
          "reference": "Encounter/157c959c-1247-473a-8f7f-9cccd15c6868"
        },
        "effectivePeriod": {
          "start": "2025-08-16"
        },
        "valueBoolean": true,
        "note": [
          {
            "text": "Definition: https://snomed.info/id/17353009"
          }
        ]
      },
      "request": {
        "method": "POST",
        "url": "Observation"
      }
    },
    {
      "fullUrl": "urn:uuid:ed4b3f2b-3e5b-42fd-9a24-736f34125bda",
      "resource": {
        "resourceType": "Observation",
        "id": "ed4b3f2b-3e5b-42fd-9a24-736f34125bda",
        "status": "final",
        "category": [
          {
            "coding": [
              {
                "system": "http://terminology.hl7.org/CodeSystem/observation-category",
                "code": "exam",
                "display": "Exam"
              }
            ],
            "text": "Exam"
          }
        ],
        "code": {
          "coding": [
            {
              "system": "http://snomed.info/sct",
              "code": "3361000175104",
              "display": "PEDS-DM (Parent's Evaluation of Developmental Status - Developmental Milestones)"
            }
          ],
          "text": "Mild delays in developmental milestones"
        },
        "subject": {
          "reference": "Patient/1db7c2bf-32fc-4ba3-b8b0-a489b65fa42b"
        },
        "encounter": {
          "reference": "Encounter/157c959c-1247-473a-8f7f-9cccd15c6868"
        },
        "effectivePeriod": {
          "start": "2025-08-16"
        },
        "valueBoolean": true,
        "note": [
          {
            "text": "Definition: https://snomed.info/id/3361000175104"
          }
        ]
      },
      "request": {
        "method": "POST",
        "url": "Observation"
      }
    },
    {
      "fullUrl": "urn:uuid:3d11b4b5-77db-46f0-b5e8-c5a86c4cf538",
      "resource": {
        "resourceType": "List",
        "id": "3d11b4b5-77db-46f0-b5e8-c5a86c4cf538",
        "contained": [
          {
            "resourceType": "FamilyMemberHistory",
            "id": "fmh-3",
            "status": "completed",
            "patient": {
              "reference": "Patient/1db7c2bf-32fc-4ba3-b8b0-a489b65fa42b"
            },
            "relationship": {
              "coding": [
                {
                  "system": "http://snomed.info/sct",
                  "code": "27733009",
                  "display": "Sister"
                }
              ]
            },
            "deceasedBoolean": false,
            "condition": []
          }
        ],
        "status": "current",
        "mode": "snapshot",
        "code": {
          "coding": [
            {
              "system": "http://loinc.org",
              "code": "8670-2",
              "display": "History of family member diseases"
            }
          ]
        },
        "subject": [
          {
            "reference": "Patient/1db7c2bf-32fc-4ba3-b8b0-a489b65fa42b"
          }
        ],
        "note": [
          {
            "text": "Both parents are alive and healthy, with no known genetic disorders."
          }
        ],
        "entry": [
          {
            "item": {
              "reference": "#fmh-3"
            }
          }
        ]
      },
      "request": {
        "method": "POST",
        "url": "FamilyMemberHistory"
      }
    }
  ]
}