{
  "resourceType": "Bundle",
  "type": "transaction",
  "entry": [
    {
      "fullUrl": "urn:uuid:575f3044-0071-4626-bc3c-f9b040d163d1",
      "resource": {
        "resourceType": "Patient",
        "id": "575f3044-0071-4626-bc3c-f9b040d163d1",
        "name": [
          {
            "family": "Rodriguez",
            "given": [
              "Sofia"
            ]
          }
        ],
        "gender": "female",
        "birthDate": "1997-01-01",
        "address": [
          {}
        ]
      },
      "request": {
        "method": "POST",
        "url": "Patient"
      }
    },
    {
      "fullUrl": "urn:uuid:53e69934-1fe0-49bb-b7dd-a8001095a13b",
      "resource": {
        "resourceType": "Encounter",
        "id": "53e69934-1fe0-49bb-b7dd-a8001095a13b",
        "identifier": [
          {
            "use": "temp",
            "value": "Encounter_Sofia Rodriguez_20251021093837"
          }
        ],
        "status": "completed",
        "priority": {
          "coding": [
            {
              "system": "http://snomed.info/sct",
              "code": "17621005",
              "display": "Normal"
            }
          ]
        },
        "type": [
          {
            "coding": [
              {
                "system": "http://snomed.info/sct",
                "code": "11429006",
                "display": "Consultation"
              }
            ]
          }
        ],
        "subject": {
          "reference": "Patient/575f3044-0071-4626-bc3c-f9b040d163d1",
          "display": "Sofia Rodriguez"
        },
        "reason": [
          {
            "value": [
              {
                "concept": {
                  "text": "intermittent fever and fatigue"
                }
              }
            ]
          }
        ]
      },
      "request": {
        "method": "POST",
        "url": "Encounter"
      }
    },
    {
      "fullUrl": "urn:uuid:d7715c8a-01a1-4583-873c-aa3169008216",
      "resource": {
        "resourceType": "Observation",
        "id": "d7715c8a-01a1-4583-873c-aa3169008216",
        "status": "final",
        "category": [
          {
            "coding": [
              {
                "system": "http://terminology.hl7.org/CodeSystem/observation-category",
                "code": "laboratory",
                "display": "Laboratory"
              }
            ],
            "text": "Laboratory"
          }
        ],
        "code": {
          "coding": [
            {
              "system": "http://loinc.org",
              "code": "26464-8",
              "display": "WBC # Bld"
            }
          ],
          "text": "White Blood Cell Count"
        },
        "subject": {
          "reference": "Patient/575f3044-0071-4626-bc3c-f9b040d163d1"
        },
        "encounter": {
          "reference": "Encounter/53e69934-1fe0-49bb-b7dd-a8001095a13b"
        },
        "effectiveDateTime": "2025-10-16",
        "valueQuantity": {
          "value": 12000.0,
          "unit": "cells per microliter",
          "system": "http://unitsofmeasure.org",
          "code": "cells per microliter"
        },
        "interpretation": [
          {
            "coding": [
              {
                "system": "http://terminology.hl7.org/CodeSystem/v3-ObservationInterpretation",
                "code": "H",
                "display": "High"
              }
            ]
          }
        ],
        "note": [
          {
            "text": "Definition: https://loinc.org/26464-8/"
          }
        ]
      },
      "request": {
        "method": "POST",
        "url": "Observation"
      }
    },
    {
      "fullUrl": "urn:uuid:b0fcc879-f347-4b63-aa33-c4248afe888a",
      "resource": {
        "resourceType": "Observation",
        "id": "b0fcc879-f347-4b63-aa33-c4248afe888a",
        "status": "final",
        "category": [
          {
            "coding": [
              {
                "system": "http://terminology.hl7.org/CodeSystem/observation-category",
                "code": "laboratory",
                "display": "Laboratory"
              }
            ],
            "text": "Laboratory"
          }
        ],
        "code": {
          "coding": [
            {
              "system": "http://loinc.org",
              "code": "62854-5",
              "display": "PhenX - glycosylated hemoglobin assay reflecting long-term glucose concentration protocol 140901"
            }
          ],
          "text": "Hemoglobin"
        },
        "subject": {
          "reference": "Patient/575f3044-0071-4626-bc3c-f9b040d163d1"
        },
        "encounter": {
          "reference": "Encounter/53e69934-1fe0-49bb-b7dd-a8001095a13b"
        },
        "effectiveDateTime": "2025-10-16",
        "valueQuantity": {
          "value": 11.5,
          "unit": "grams per deciliter",
          "system": "http://unitsofmeasure.org",
          "code": "grams per deciliter"
        },
        "interpretation": [
          {
            "coding": [
              {
                "system": "http://terminology.hl7.org/CodeSystem/v3-ObservationInterpretation",
                "code": "L",
                "display": "Low"
              }
            ]
          }
        ],
        "note": [
          {
            "text": "Definition: https://loinc.org/62854-5/"
          }
        ]
      },
      "request": {
        "method": "POST",
        "url": "Observation"
      }
    },
    {
      "fullUrl": "urn:uuid:4e138812-2187-495b-9309-8d21ee80d364",
      "resource": {
        "resourceType": "Observation",
        "id": "4e138812-2187-495b-9309-8d21ee80d364",
        "status": "final",
        "category": [
          {
            "coding": [
              {
                "system": "http://terminology.hl7.org/CodeSystem/observation-category",
                "code": "laboratory",
                "display": "Laboratory"
              }
            ],
            "text": "Laboratory"
          }
        ],
        "code": {
          "coding": [
            {
              "system": "http://loinc.org",
              "code": "74775-8",
              "display": "Platelet # PRP Auto"
            }
          ],
          "text": "Platelet Count"
        },
        "subject": {
          "reference": "Patient/575f3044-0071-4626-bc3c-f9b040d163d1"
        },
        "encounter": {
          "reference": "Encounter/53e69934-1fe0-49bb-b7dd-a8001095a13b"
        },
        "effectiveDateTime": "2025-10-16",
        "valueQuantity": {
          "value": 90000.0,
          "unit": "cells per microliter",
          "system": "http://unitsofmeasure.org",
          "code": "cells per microliter"
        },
        "interpretation": [
          {
            "coding": [
              {
                "system": "http://terminology.hl7.org/CodeSystem/v3-ObservationInterpretation",
                "code": "L",
                "display": "Low"
              }
            ]
          }
        ],
        "note": [
          {
            "text": "Definition: https://loinc.org/74775-8/"
          }
        ]
      },
      "request": {
        "method": "POST",
        "url": "Observation"
      }
    },
    {
      "fullUrl": "urn:uuid:bb396b0b-9205-47f5-ae95-f4e6c6ee278f",
      "resource": {
        "resourceType": "Observation",
        "id": "bb396b0b-9205-47f5-ae95-f4e6c6ee278f",
        "status": "final",
        "category": [
          {
            "coding": [
              {
                "system": "http://terminology.hl7.org/CodeSystem/observation-category",
                "code": "laboratory",
                "display": "Laboratory"
              }
            ],
            "text": "Laboratory"
          }
        ],
        "code": {
          "coding": [
            {
              "system": "http://loinc.org",
              "code": "1917-4",
              "display": "AST Amn-cCnc"
            }
          ],
          "text": "Aspartate Aminotransferase"
        },
        "subject": {
          "reference": "Patient/575f3044-0071-4626-bc3c-f9b040d163d1"
        },
        "encounter": {
          "reference": "Encounter/53e69934-1fe0-49bb-b7dd-a8001095a13b"
        },
        "effectiveDateTime": "2025-10-16",
        "valueQuantity": {
          "value": 45.0,
          "unit": "units per liter",
          "system": "http://unitsofmeasure.org",
          "code": "units per liter"
        },
        "interpretation": [
          {
            "coding": [
              {
                "system": "http://terminology.hl7.org/CodeSystem/v3-ObservationInterpretation",
                "code": "H",
                "display": "High"
              }
            ]
          }
        ],
        "note": [
          {
            "text": "Definition: https://loinc.org/1917-4/"
          }
        ]
      },
      "request": {
        "method": "POST",
        "url": "Observation"
      }
    },
    {
      "fullUrl": "urn:uuid:eaa3c9d5-4614-4860-848c-f0ca289e2cd4",
      "resource": {
        "resourceType": "Observation",
        "id": "eaa3c9d5-4614-4860-848c-f0ca289e2cd4",
        "status": "final",
        "category": [
          {
            "coding": [
              {
                "system": "http://terminology.hl7.org/CodeSystem/observation-category",
                "code": "laboratory",
                "display": "Laboratory"
              }
            ],
            "text": "Laboratory"
          }
        ],
        "code": {
          "coding": [
            {
              "system": "http://loinc.org",
              "code": "69478-6",
              "display": "AGXT gene Del+Dup Bld/T MLPA"
            }
          ],
          "text": "Alanine Aminotransferase"
        },
        "subject": {
          "reference": "Patient/575f3044-0071-4626-bc3c-f9b040d163d1"
        },
        "encounter": {
          "reference": "Encounter/53e69934-1fe0-49bb-b7dd-a8001095a13b"
        },
        "effectiveDateTime": "2025-10-16",
        "valueQuantity": {
          "value": 50.0,
          "unit": "units per liter",
          "system": "http://unitsofmeasure.org",
          "code": "units per liter"
        },
        "interpretation": [
          {
            "coding": [
              {
                "system": "http://terminology.hl7.org/CodeSystem/v3-ObservationInterpretation",
                "code": "H",
                "display": "High"
              }
            ]
          }
        ],
        "note": [
          {
            "text": "Definition: https://loinc.org/69478-6/"
          }
        ]
      },
      "request": {
        "method": "POST",
        "url": "Observation"
      }
    },
    {
      "fullUrl": "urn:uuid:f42f9a73-dbfd-423c-bd45-c11707a6f1c1",
      "resource": {
        "resourceType": "Observation",
        "id": "f42f9a73-dbfd-423c-bd45-c11707a6f1c1",
        "status": "final",
        "category": [
          {
            "coding": [
              {
                "system": "http://terminology.hl7.org/CodeSystem/observation-category",
                "code": "exam",
                "display": "Exam"
              }
            ],
            "text": "Exam"
          }
        ],
        "code": {
          "coding": [
            {
              "system": "http://snomed.info/sct",
              "code": "386661006",
              "display": "Fever"
            }
          ],
          "text": "Fever"
        },
        "subject": {
          "reference": "Patient/575f3044-0071-4626-bc3c-f9b040d163d1"
        },
        "encounter": {
          "reference": "Encounter/53e69934-1fe0-49bb-b7dd-a8001095a13b"
        },
        "effectivePeriod": {
          "start": "2025-10-16"
        },
        "valueBoolean": true,
        "interpretation": [
          {
            "coding": [
              {
                "system": "http://terminology.hl7.org/CodeSystem/v3-ObservationInterpretation",
                "code": "H",
                "display": "High"
              }
            ],
            "text": "High"
          }
        ],
        "note": [
          {
            "text": "Definition: https://snomed.info/id/386661006"
          }
        ]
      },
      "request": {
        "method": "POST",
        "url": "Observation"
      }
    },
    {
      "fullUrl": "urn:uuid:eb742e03-d3e3-47b4-b2ef-a2d8c296cfb3",
      "resource": {
        "resourceType": "Observation",
        "id": "eb742e03-d3e3-47b4-b2ef-a2d8c296cfb3",
        "status": "final",
        "category": [
          {
            "coding": [
              {
                "system": "http://terminology.hl7.org/CodeSystem/observation-category",
                "code": "exam",
                "display": "Exam"
              }
            ],
            "text": "Exam"
          }
        ],
        "code": {
          "coding": [
            {
              "system": "http://snomed.info/sct",
              "code": "84229001",
              "display": "Fatigue"
            }
          ],
          "text": "Fatigue"
        },
        "subject": {
          "reference": "Patient/575f3044-0071-4626-bc3c-f9b040d163d1"
        },
        "encounter": {
          "reference": "Encounter/53e69934-1fe0-49bb-b7dd-a8001095a13b"
        },
        "effectivePeriod": {
          "start": "2025-10-16"
        },
        "valueBoolean": true,
        "note": [
          {
            "text": "Definition: https://snomed.info/id/84229001"
          }
        ]
      },
      "request": {
        "method": "POST",
        "url": "Observation"
      }
    },
    {
      "fullUrl": "urn:uuid:68960c41-4632-41ac-8f56-62d7d8b42f6f",
      "resource": {
        "resourceType": "Observation",
        "id": "68960c41-4632-41ac-8f56-62d7d8b42f6f",
        "status": "final",
        "category": [
          {
            "coding": [
              {
                "system": "http://terminology.hl7.org/CodeSystem/observation-category",
                "code": "exam",
                "display": "Exam"
              }
            ],
            "text": "Exam"
          }
        ],
        "code": {
          "coding": [
            {
              "system": "http://snomed.info/sct",
              "code": "42984000",
              "display": "Night sweats"
            }
          ],
          "text": "Night Sweats"
        },
        "subject": {
          "reference": "Patient/575f3044-0071-4626-bc3c-f9b040d163d1"
        },
        "encounter": {
          "reference": "Encounter/53e69934-1fe0-49bb-b7dd-a8001095a13b"
        },
        "effectivePeriod": {
          "start": "2025-10-16"
        },
        "valueBoolean": true,
        "note": [
          {
            "text": "Definition: https://snomed.info/id/42984000"
          }
        ]
      },
      "request": {
        "method": "POST",
        "url": "Observation"
      }
    },
    {
      "fullUrl": "urn:uuid:b1978fd1-d66a-4971-a702-13fb4d698e63",
      "resource": {
        "resourceType": "Observation",
        "id": "b1978fd1-d66a-4971-a702-13fb4d698e63",
        "status": "final",
        "category": [
          {
            "coding": [
              {
                "system": "http://terminology.hl7.org/CodeSystem/observation-category",
                "code": "vital-signs",
                "display": "Vital Signs"
              }
            ],
            "text": "Vital Signs"
          }
        ],
        "code": {
          "coding": [
            {
              "system": "http://loinc.org",
              "code": "8310-5",
              "display": "Body temperature"
            }
          ],
          "text": "Body Temperature"
        },
        "subject": {
          "reference": "Patient/575f3044-0071-4626-bc3c-f9b040d163d1"
        },
        "encounter": {
          "reference": "Encounter/53e69934-1fe0-49bb-b7dd-a8001095a13b"
        },
        "effectiveDateTime": "2025-10-16",
        "valueQuantity": {
          "value": 38.5,
          "unit": "degrees Celsius",
          "system": "http://unitsofmeasure.org",
          "code": "degrees Celsius"
        },
        "interpretation": [
          {
            "coding": [
              {
                "system": "http://terminology.hl7.org/CodeSystem/v3-ObservationInterpretation",
                "code": "H",
                "display": "High"
              }
            ],
            "text": "High"
          }
        ]
      },
      "request": {
        "method": "POST",
        "url": "Observation"
      }
    },
    {
      "fullUrl": "urn:uuid:e911ffc6-4db9-4a5a-b629-a2fa89ad50fa",
      "resource": {
        "resourceType": "Observation",
        "id": "e911ffc6-4db9-4a5a-b629-a2fa89ad50fa",
        "status": "final",
        "category": [
          {
            "coding": [
              {
                "system": "http://terminology.hl7.org/CodeSystem/observation-category",
                "code": "vital-signs",
                "display": "Vital Signs"
              }
            ],
            "text": "Vital Signs"
          }
        ],
        "code": {
          "coding": [
            {
              "system": "http://loinc.org",
              "code": "62733-1",
              "display": "PhenX - respiratory - pulse oximetry - rest protocol 091101"
            }
          ],
          "text": "Pulse"
        },
        "subject": {
          "reference": "Patient/575f3044-0071-4626-bc3c-f9b040d163d1"
        },
        "encounter": {
          "reference": "Encounter/53e69934-1fe0-49bb-b7dd-a8001095a13b"
        },
        "effectiveDateTime": "2025-10-16",
        "valueQuantity": {
          "value": 110.0,
          "unit": "beats per minute",
          "system": "http://unitsofmeasure.org",
          "code": "beats per minute"
        },
        "interpretation": [
          {
            "coding": [
              {
                "system": "http://terminology.hl7.org/CodeSystem/v3-ObservationInterpretation",
                "code": "H",
                "display": "High"
              }
            ],
            "text": "High"
          }
        ]
      },
      "request": {
        "method": "POST",
        "url": "Observation"
      }
    },
    {
      "fullUrl": "urn:uuid:fe4b2c6b-a4e7-482f-acc1-ded5394a9a2b",
      "resource": {
        "resourceType": "Observation",
        "id": "fe4b2c6b-a4e7-482f-acc1-ded5394a9a2b",
        "status": "final",
        "category": [
          {
            "coding": [
              {
                "system": "http://terminology.hl7.org/CodeSystem/observation-category",
                "code": "vital-signs",
                "display": "Vital Signs"
              }
            ],
            "text": "Vital Signs"
          }
        ],
        "code": {
          "coding": [
            {
              "system": "http://loinc.org",
              "code": "18684-1",
              "display": "Blood pressure"
            }
          ],
          "text": "Blood Pressure"
        },
        "subject": {
          "reference": "Patient/575f3044-0071-4626-bc3c-f9b040d163d1"
        },
        "encounter": {
          "reference": "Encounter/53e69934-1fe0-49bb-b7dd-a8001095a13b"
        },
        "effectiveDateTime": "2025-10-16"
      },
      "request": {
        "method": "POST",
        "url": "Observation"
      }
    },
    {
      "fullUrl": "urn:uuid:0a8c9b8f-949c-4b0a-8939-6f61478ba9d0",
      "resource": {
        "resourceType": "Observation",
        "id": "0a8c9b8f-949c-4b0a-8939-6f61478ba9d0",
        "status": "final",
        "category": [
          {
            "coding": [
              {
                "system": "http://terminology.hl7.org/CodeSystem/observation-category",
                "code": "vital-signs",
                "display": "Vital Signs"
              }
            ],
            "text": "Vital Signs"
          }
        ],
        "code": {
          "coding": [
            {
              "system": "http://loinc.org",
              "code": "9279-1",
              "display": "Resp rate"
            }
          ],
          "text": "Respiratory Rate"
        },
        "subject": {
          "reference": "Patient/575f3044-0071-4626-bc3c-f9b040d163d1"
        },
        "encounter": {
          "reference": "Encounter/53e69934-1fe0-49bb-b7dd-a8001095a13b"
        },
        "effectiveDateTime": "2025-10-16",
        "valueQuantity": {
          "value": 22.0,
          "unit": "breaths per minute",
          "system": "http://unitsofmeasure.org",
          "code": "breaths per minute"
        },
        "interpretation": [
          {
            "coding": [
              {
                "system": "http://terminology.hl7.org/CodeSystem/v3-ObservationInterpretation",
                "code": "H",
                "display": "High"
              }
            ],
            "text": "High"
          }
        ]
      },
      "request": {
        "method": "POST",
        "url": "Observation"
      }
    },
    {
      "fullUrl": "urn:uuid:7c28b062-674c-4ffd-ba12-55a49b453f23",
      "resource": {
        "resourceType": "Observation",
        "id": "7c28b062-674c-4ffd-ba12-55a49b453f23",
        "status": "final",
        "category": [
          {
            "coding": [
              {
                "system": "http://terminology.hl7.org/CodeSystem/observation-category",
                "code": "vital-signs",
                "display": "Vital Signs"
              }
            ],
            "text": "Vital Signs"
          }
        ],
        "code": {
          "coding": [
            {
              "system": "http://loinc.org",
              "code": "2717-7",
              "display": "OxyHgb MFr Plas"
            }
          ],
          "text": "Oxygen Saturation"
        },
        "subject": {
          "reference": "Patient/575f3044-0071-4626-bc3c-f9b040d163d1"
        },
        "encounter": {
          "reference": "Encounter/53e69934-1fe0-49bb-b7dd-a8001095a13b"
        },
        "effectiveDateTime": "2025-10-16",
        "valueQuantity": {
          "value": 98.0,
          "unit": "%",
          "system": "http://unitsofmeasure.org",
          "code": "%"
        },
        "interpretation": [
          {
            "coding": [
              {
                "system": "http://terminology.hl7.org/CodeSystem/v3-ObservationInterpretation",
                "code": "N",
                "display": "Normal"
              }
            ],
            "text": "Normal"
          }
        ]
      },
      "request": {
        "method": "POST",
        "url": "Observation"
      }
    },
    {
      "fullUrl": "urn:uuid:3ab48e3a-f97b-449d-9da1-7c8e6b764148",
      "resource": {
        "resourceType": "Observation",
        "id": "3ab48e3a-f97b-449d-9da1-7c8e6b764148",
        "status": "final",
        "category": [
          {
            "coding": [
              {
                "system": "http://terminology.hl7.org/CodeSystem/observation-category",
                "code": "vital-signs",
                "display": "Vital Signs"
              }
            ],
            "text": "Vital Signs"
          }
        ],
        "code": {
          "coding": [
            {
              "system": "http://loinc.org",
              "code": "8337-8",
              "display": "Bdy weight special circumstances"
            }
          ],
          "text": "Weight"
        },
        "subject": {
          "reference": "Patient/575f3044-0071-4626-bc3c-f9b040d163d1"
        },
        "encounter": {
          "reference": "Encounter/53e69934-1fe0-49bb-b7dd-a8001095a13b"
        },
        "effectiveDateTime": "2025-10-16",
        "valueQuantity": {
          "value": 2.0,
          "unit": "kilograms",
          "system": "http://unitsofmeasure.org",
          "code": "kilograms"
        },
        "interpretation": [
          {
            "coding": [
              {
                "system": "http://terminology.hl7.org/CodeSystem/v3-ObservationInterpretation",
                "code": "L",
                "display": "Low"
              }
            ],
            "text": "Low"
          }
        ]
      },
      "request": {
        "method": "POST",
        "url": "Observation"
      }
    },
    {
      "fullUrl": "urn:uuid:b71d346b-ff6e-4b43-a47f-c5a413e9b776",
      "resource": {
        "resourceType": "MedicationStatement",
        "id": "b71d346b-ff6e-4b43-a47f-c5a413e9b776",
        "status": "recorded",
        "medication": {
          "concept": {
            "coding": [
              {
                "system": "http://snomed.info/sct",
                "code": "387517004",
                "display": "Acetaminophen"
              }
            ],
            "text": "Acetaminophen"
          }
        },
        "subject": {
          "reference": "Patient/575f3044-0071-4626-bc3c-f9b040d163d1"
        },
        "encounter": {
          "reference": "Encounter/53e69934-1fe0-49bb-b7dd-a8001095a13b"
        },
        "effectiveDateTime": "2025-10-16",
        "informationSource": [
          {
            "reference": "Patient/575f3044-0071-4626-bc3c-f9b040d163d1"
          }
        ],
        "dosage": [
          {
            "text": "as needed"
          }
        ]
      },
      "request": {
        "method": "POST",
        "url": "MedicationStatement"
      }
    },
    {
      "fullUrl": "urn:uuid:e1c13f29-d325-4d72-ab8b-6be266a9f5e1",
      "resource": {
        "resourceType": "MedicationStatement",
        "id": "e1c13f29-d325-4d72-ab8b-6be266a9f5e1",
        "status": "recorded",
        "medication": {
          "concept": {
            "coding": [
              {
                "system": "http://snomed.info/sct",
                "code": "387207008",
                "display": "Ibuprofen"
              }
            ],
            "text": "Ibuprofen"
          }
        },
        "subject": {
          "reference": "Patient/575f3044-0071-4626-bc3c-f9b040d163d1"
        },
        "encounter": {
          "reference": "Encounter/53e69934-1fe0-49bb-b7dd-a8001095a13b"
        },
        "effectiveDateTime": "2025-10-16",
        "informationSource": [
          {
            "reference": "Patient/575f3044-0071-4626-bc3c-f9b040d163d1"
          }
        ]
      },
      "request": {
        "method": "POST",
        "url": "MedicationStatement"
      }
    },
    {
      "fullUrl": "urn:uuid:49cae970-313b-4cf8-99c1-8eb9d15a5599",
      "resource": {
        "resourceType": "Encounter",
        "id": "49cae970-313b-4cf8-99c1-8eb9d15a5599",
        "identifier": [
          {
            "use": "temp",
            "value": "Encounter_Sofia Rodriguez_20251021093850"
          }
        ],
        "status": "completed",
        "priority": {
          "coding": [
            {
              "system": "http://snomed.info/sct",
              "code": "17621005",
              "display": "Normal"
            }
          ]
        },
        "type": [
          {
            "coding": [
              {
                "system": "http://snomed.info/sct",
                "code": "11429006",
                "display": "Consultation"
              }
            ]
          }
        ],
        "subject": {
          "reference": "Patient/575f3044-0071-4626-bc3c-f9b040d163d1",
          "display": "Sofia Rodriguez"
        },
        "reason": [
          {
            "value": [
              {
                "concept": {
                  "text": "similar episode of fever and fatigue"
                }
              }
            ]
          }
        ]
      },
      "request": {
        "method": "POST",
        "url": "Encounter"
      }
    },
    {
      "fullUrl": "urn:uuid:2137ae6f-4f90-4303-806d-d3bbc1418101",
      "resource": {
        "resourceType": "Observation",
        "id": "2137ae6f-4f90-4303-806d-d3bbc1418101",
        "status": "final",
        "category": [
          {
            "coding": [
              {
                "system": "http://terminology.hl7.org/CodeSystem/observation-category",
                "code": "laboratory",
                "display": "Laboratory"
              }
            ],
            "text": "Laboratory"
          }
        ],
        "code": {
          "coding": [
            {
              "system": "http://loinc.org",
              "code": "30341-2",
              "display": "Erythrocyte Sed Rat Bld"
            }
          ],
          "text": "Erythrocyte Sedimentation Rate"
        },
        "subject": {
          "reference": "Patient/575f3044-0071-4626-bc3c-f9b040d163d1"
        },
        "encounter": {
          "reference": "Encounter/49cae970-313b-4cf8-99c1-8eb9d15a5599"
        },
        "effectiveDateTime": "2025-08-16",
        "interpretation": [
          {
            "coding": [
              {
                "system": "http://terminology.hl7.org/CodeSystem/v3-ObservationInterpretation",
                "code": "H",
                "display": "High"
              }
            ]
          }
        ],
        "note": [
          {
            "text": "Definition: https://loinc.org/30341-2/"
          }
        ]
      },
      "request": {
        "method": "POST",
        "url": "Observation"
      }
    },
    {
      "fullUrl": "urn:uuid:0473a6fa-d125-44f5-9b34-12aed398d9b7",
      "resource": {
        "resourceType": "Observation",
        "id": "0473a6fa-d125-44f5-9b34-12aed398d9b7",
        "status": "final",
        "category": [
          {
            "coding": [
              {
                "system": "http://terminology.hl7.org/CodeSystem/observation-category",
                "code": "exam",
                "display": "Exam"
              }
            ],
            "text": "Exam"
          }
        ],
        "code": {
          "coding": [
            {
              "system": "http://snomed.info/sct",
              "code": "386661006",
              "display": "Fever"
            }
          ],
          "text": "Fever"
        },
        "subject": {
          "reference": "Patient/575f3044-0071-4626-bc3c-f9b040d163d1"
        },
        "encounter": {
          "reference": "Encounter/49cae970-313b-4cf8-99c1-8eb9d15a5599"
        },
        "effectivePeriod": {
          "start": "2025-08-16"
        },
        "valueBoolean": true,
        "interpretation": [
          {
            "coding": [
              {
                "system": "http://terminology.hl7.org/CodeSystem/v3-ObservationInterpretation",
                "code": "H",
                "display": "High"
              }
            ],
            "text": "High"
          }
        ],
        "note": [
          {
            "text": "Definition: https://snomed.info/id/386661006"
          }
        ]
      },
      "request": {
        "method": "POST",
        "url": "Observation"
      }
    },
    {
      "fullUrl": "urn:uuid:f4eb42cd-042a-42ac-8e50-c16eaec4c37b",
      "resource": {
        "resourceType": "Observation",
        "id": "f4eb42cd-042a-42ac-8e50-c16eaec4c37b",
        "status": "final",
        "category": [
          {
            "coding": [
              {
                "system": "http://terminology.hl7.org/CodeSystem/observation-category",
                "code": "exam",
                "display": "Exam"
              }
            ],
            "text": "Exam"
          }
        ],
        "code": {
          "coding": [
            {
              "system": "http://snomed.info/sct",
              "code": "84229001",
              "display": "Fatigue"
            }
          ],
          "text": "Fatigue"
        },
        "subject": {
          "reference": "Patient/575f3044-0071-4626-bc3c-f9b040d163d1"
        },
        "encounter": {
          "reference": "Encounter/49cae970-313b-4cf8-99c1-8eb9d15a5599"
        },
        "effectivePeriod": {
          "start": "2025-08-16"
        },
        "valueBoolean": true,
        "note": [
          {
            "text": "Definition: https://snomed.info/id/84229001"
          }
        ]
      },
      "request": {
        "method": "POST",
        "url": "Observation"
      }
    },
    {
      "fullUrl": "urn:uuid:a1b4fd30-9639-4fca-b0e8-6145dde59321",
      "resource": {
        "resourceType": "List",
        "id": "a1b4fd30-9639-4fca-b0e8-6145dde59321",
        "contained": [
          {
            "resourceType": "FamilyMemberHistory",
            "id": "fmh-2",
            "status": "completed",
            "patient": {
              "reference": "Patient/575f3044-0071-4626-bc3c-f9b040d163d1"
            },
            "relationship": {
              "coding": [
                {
                  "system": "http://snomed.info/sct",
                  "code": "70924004",
                  "display": "Brother"
                }
              ]
            },
            "deceasedBoolean": false,
            "condition": [
              {
                "code": {
                  "coding": [
                    {
                      "system": "http://snomed.info/sct",
                      "code": "1187114007",
                      "display": "Micrognathia, recurrent infections, behavioral abnormalities, mild intellectual disability syndrome"
                    }
                  ]
                }
              }
            ]
          }
        ],
        "status": "current",
        "mode": "snapshot",
        "code": {
          "coding": [
            {
              "system": "http://loinc.org",
              "code": "8670-2",
              "display": "History of family member diseases"
            }
          ]
        },
        "subject": [
          {
            "reference": "Patient/575f3044-0071-4626-bc3c-f9b040d163d1"
          }
        ],
        "entry": [
          {
            "item": {
              "reference": "#fmh-2"
            }
          }
        ]
      },
      "request": {
        "method": "POST",
        "url": "FamilyMemberHistory"
      }
    }
  ]
}