{
  "resourceType": "Bundle",
  "type": "transaction",
  "entry": [
    {
      "fullUrl": "urn:uuid:000dbbfb-8bd9-465d-b824-528924079a10",
      "resource": {
        "resourceType": "Patient",
        "id": "000dbbfb-8bd9-465d-b824-528924079a10",
        "name": [
          {
            "family": "Karpov",
            "given": [
              "Maxim"
            ]
          }
        ],
        "gender": "male",
        "address": [
          {}
        ]
      },
      "request": {
        "method": "POST",
        "url": "Patient"
      }
    },
    {
      "fullUrl": "urn:uuid:a53770aa-e679-44f0-9cbe-0442241f6272",
      "resource": {
        "resourceType": "Encounter",
        "id": "a53770aa-e679-44f0-9cbe-0442241f6272",
        "identifier": [
          {
            "use": "temp",
            "value": "Encounter_Maxim Karpov_20251017182730"
          }
        ],
        "status": "completed",
        "priority": {
          "coding": [
            {
              "system": "http://snomed.info/sct",
              "code": "17621005",
              "display": "Normal"
            }
          ]
        },
        "type": [
          {
            "coding": [
              {
                "system": "http://snomed.info/sct",
                "code": "11429006",
                "display": "Consultation"
              }
            ]
          }
        ],
        "subject": {
          "reference": "Patient/000dbbfb-8bd9-465d-b824-528924079a10",
          "display": "Maxim Karpov"
        },
        "reason": [
          {
            "value": [
              {
                "concept": {
                  "text": "persistent fever, rash, and hepatosplenomegaly"
                }
              }
            ]
          }
        ]
      },
      "request": {
        "method": "POST",
        "url": "Encounter"
      }
    },
    {
      "fullUrl": "urn:uuid:e2d8c19b-7d69-4246-933e-c690e1913530",
      "resource": {
        "resourceType": "Observation",
        "id": "e2d8c19b-7d69-4246-933e-c690e1913530",
        "status": "final",
        "category": [
          {
            "coding": [
              {
                "system": "http://terminology.hl7.org/CodeSystem/observation-category",
                "code": "laboratory",
                "display": "Laboratory"
              }
            ],
            "text": "Laboratory"
          }
        ],
        "code": {
          "coding": [
            {
              "system": "http://loinc.org",
              "code": "53048-5",
              "display": "Ferritin Fld-mCnc"
            }
          ],
          "text": "Ferritin"
        },
        "subject": {
          "reference": "Patient/000dbbfb-8bd9-465d-b824-528924079a10"
        },
        "encounter": {
          "reference": "Encounter/a53770aa-e679-44f0-9cbe-0442241f6272"
        },
        "effectiveDateTime": "2025-10-16",
        "valueQuantity": {
          "value": 6000.0,
          "unit": "ng/mL",
          "system": "http://unitsofmeasure.org",
          "code": "ng/mL"
        },
        "interpretation": [
          {
            "coding": [
              {
                "system": "http://terminology.hl7.org/CodeSystem/v3-ObservationInterpretation",
                "code": "H",
                "display": "High"
              }
            ]
          }
        ],
        "note": [
          {
            "text": "Definition: https://loinc.org/53048-5/"
          }
        ]
      },
      "request": {
        "method": "POST",
        "url": "Observation"
      }
    },
    {
      "fullUrl": "urn:uuid:b0ecad15-97e0-4a0a-9a19-acccc89cb65b",
      "resource": {
        "resourceType": "Observation",
        "id": "b0ecad15-97e0-4a0a-9a19-acccc89cb65b",
        "status": "final",
        "category": [
          {
            "coding": [
              {
                "system": "http://terminology.hl7.org/CodeSystem/observation-category",
                "code": "laboratory",
                "display": "Laboratory"
              }
            ],
            "text": "Laboratory"
          }
        ],
        "code": {
          "coding": [
            {
              "system": "http://loinc.org",
              "code": "2546-0",
              "display": "LDH4 SerPl-cCnc"
            }
          ],
          "text": "Lactate Dehydrogenase (LDH)"
        },
        "subject": {
          "reference": "Patient/000dbbfb-8bd9-465d-b824-528924079a10"
        },
        "encounter": {
          "reference": "Encounter/a53770aa-e679-44f0-9cbe-0442241f6272"
        },
        "effectiveDateTime": "2025-10-16",
        "interpretation": [
          {
            "coding": [
              {
                "system": "http://terminology.hl7.org/CodeSystem/v3-ObservationInterpretation",
                "code": "H",
                "display": "High"
              }
            ]
          }
        ],
        "note": [
          {
            "text": "Definition: https://loinc.org/2546-0/"
          }
        ]
      },
      "request": {
        "method": "POST",
        "url": "Observation"
      }
    },
    {
      "fullUrl": "urn:uuid:7f105089-0086-45c9-8683-6b0468ea6b12",
      "resource": {
        "resourceType": "Observation",
        "id": "7f105089-0086-45c9-8683-6b0468ea6b12",
        "status": "final",
        "category": [
          {
            "coding": [
              {
                "system": "http://terminology.hl7.org/CodeSystem/observation-category",
                "code": "laboratory",
                "display": "Laboratory"
              }
            ],
            "text": "Laboratory"
          }
        ],
        "code": {
          "coding": [
            {
              "system": "http://loinc.org",
              "code": "93340-8",
              "display": "PhenX - complete blood count protocol 220501"
            }
          ],
          "text": "CBC"
        },
        "subject": {
          "reference": "Patient/000dbbfb-8bd9-465d-b824-528924079a10"
        },
        "encounter": {
          "reference": "Encounter/a53770aa-e679-44f0-9cbe-0442241f6272"
        },
        "effectiveDateTime": "2025-10-16",
        "interpretation": [
          {
            "coding": [
              {
                "system": "http://terminology.hl7.org/CodeSystem/v3-ObservationInterpretation",
                "code": "A",
                "display": "Abnormal"
              }
            ]
          }
        ],
        "note": [
          {
            "text": "Definition: https://loinc.org/93340-8/"
          }
        ]
      },
      "request": {
        "method": "POST",
        "url": "Observation"
      }
    },
    {
      "fullUrl": "urn:uuid:c6bd4988-b999-47aa-a6b4-7155588a3331",
      "resource": {
        "resourceType": "Observation",
        "id": "c6bd4988-b999-47aa-a6b4-7155588a3331",
        "status": "final",
        "category": [
          {
            "coding": [
              {
                "system": "http://terminology.hl7.org/CodeSystem/observation-category",
                "code": "exam",
                "display": "Exam"
              }
            ],
            "text": "Exam"
          }
        ],
        "code": {
          "coding": [
            {
              "system": "http://snomed.info/sct",
              "code": "386661006",
              "display": "Fever"
            }
          ],
          "text": "Fever"
        },
        "subject": {
          "reference": "Patient/000dbbfb-8bd9-465d-b824-528924079a10"
        },
        "encounter": {
          "reference": "Encounter/a53770aa-e679-44f0-9cbe-0442241f6272"
        },
        "effectivePeriod": {
          "start": "2025-10-16"
        },
        "valueBoolean": true,
        "note": [
          {
            "text": "Definition: https://snomed.info/id/386661006"
          }
        ]
      },
      "request": {
        "method": "POST",
        "url": "Observation"
      }
    },
    {
      "fullUrl": "urn:uuid:91607f11-82f9-4d58-ac1a-899dd6ad4405",
      "resource": {
        "resourceType": "Observation",
        "id": "91607f11-82f9-4d58-ac1a-899dd6ad4405",
        "status": "final",
        "category": [
          {
            "coding": [
              {
                "system": "http://terminology.hl7.org/CodeSystem/observation-category",
                "code": "exam",
                "display": "Exam"
              }
            ],
            "text": "Exam"
          }
        ],
        "code": {
          "coding": [
            {
              "system": "http://snomed.info/sct",
              "code": "89757007",
              "display": "Macular rash"
            }
          ],
          "text": "Rash"
        },
        "subject": {
          "reference": "Patient/000dbbfb-8bd9-465d-b824-528924079a10"
        },
        "encounter": {
          "reference": "Encounter/a53770aa-e679-44f0-9cbe-0442241f6272"
        },
        "effectivePeriod": {
          "start": "2025-10-16"
        },
        "valueBoolean": true,
        "note": [
          {
            "text": "Definition: https://snomed.info/id/89757007"
          }
        ]
      },
      "request": {
        "method": "POST",
        "url": "Observation"
      }
    },
    {
      "fullUrl": "urn:uuid:7d14d862-af17-4526-9844-bbc44ebfa6b3",
      "resource": {
        "resourceType": "Observation",
        "id": "7d14d862-af17-4526-9844-bbc44ebfa6b3",
        "status": "final",
        "category": [
          {
            "coding": [
              {
                "system": "http://terminology.hl7.org/CodeSystem/observation-category",
                "code": "exam",
                "display": "Exam"
              }
            ],
            "text": "Exam"
          }
        ],
        "code": {
          "coding": [
            {
              "system": "http://snomed.info/sct",
              "code": "36760000",
              "display": "Hepatosplenomegaly"
            }
          ],
          "text": "Hepatosplenomegaly"
        },
        "subject": {
          "reference": "Patient/000dbbfb-8bd9-465d-b824-528924079a10"
        },
        "encounter": {
          "reference": "Encounter/a53770aa-e679-44f0-9cbe-0442241f6272"
        },
        "effectivePeriod": {
          "start": "2025-10-16"
        },
        "valueBoolean": true,
        "note": [
          {
            "text": "Definition: https://snomed.info/id/36760000"
          }
        ]
      },
      "request": {
        "method": "POST",
        "url": "Observation"
      }
    },
    {
      "fullUrl": "urn:uuid:312b81c5-db5d-42e2-b6fc-0ad95ac21698",
      "resource": {
        "resourceType": "Observation",
        "id": "312b81c5-db5d-42e2-b6fc-0ad95ac21698",
        "status": "final",
        "category": [
          {
            "coding": [
              {
                "system": "http://terminology.hl7.org/CodeSystem/observation-category",
                "code": "exam",
                "display": "Exam"
              }
            ],
            "text": "Exam"
          }
        ],
        "code": {
          "coding": [
            {
              "system": "http://snomed.info/sct",
              "code": "95199009",
              "display": "Pallor of liver"
            }
          ],
          "text": "Pallor"
        },
        "subject": {
          "reference": "Patient/000dbbfb-8bd9-465d-b824-528924079a10"
        },
        "encounter": {
          "reference": "Encounter/a53770aa-e679-44f0-9cbe-0442241f6272"
        },
        "effectivePeriod": {
          "start": "2025-10-16"
        },
        "valueBoolean": true,
        "note": [
          {
            "text": "Definition: https://snomed.info/id/95199009"
          }
        ]
      },
      "request": {
        "method": "POST",
        "url": "Observation"
      }
    },
    {
      "fullUrl": "urn:uuid:89bd9fb0-3018-44dc-8171-d7e901fe460a",
      "resource": {
        "resourceType": "Observation",
        "id": "89bd9fb0-3018-44dc-8171-d7e901fe460a",
        "status": "final",
        "category": [
          {
            "coding": [
              {
                "system": "http://terminology.hl7.org/CodeSystem/observation-category",
                "code": "exam",
                "display": "Exam"
              }
            ],
            "text": "Exam"
          }
        ],
        "code": {
          "coding": [
            {
              "system": "http://snomed.info/sct",
              "code": "214264003",
              "display": "Lethargy"
            }
          ],
          "text": "Lethargy"
        },
        "subject": {
          "reference": "Patient/000dbbfb-8bd9-465d-b824-528924079a10"
        },
        "encounter": {
          "reference": "Encounter/a53770aa-e679-44f0-9cbe-0442241f6272"
        },
        "effectivePeriod": {
          "start": "2025-10-16"
        },
        "valueBoolean": true,
        "note": [
          {
            "text": "Definition: https://snomed.info/id/214264003"
          }
        ]
      },
      "request": {
        "method": "POST",
        "url": "Observation"
      }
    },
    {
      "fullUrl": "urn:uuid:69a663f1-b11c-472f-a6ef-5d8bf9a93058",
      "resource": {
        "resourceType": "List",
        "id": "69a663f1-b11c-472f-a6ef-5d8bf9a93058",
        "contained": [
          {
            "resourceType": "FamilyMemberHistory",
            "id": "fmh-1",
            "status": "completed",
            "patient": {
              "reference": "Patient/000dbbfb-8bd9-465d-b824-528924079a10"
            },
            "relationship": {
              "coding": [
                {
                  "system": "http://snomed.info/sct",
                  "code": "55538000",
                  "display": "Cousin"
                }
              ]
            },
            "deceasedBoolean": true,
            "condition": [
              {
                "code": {
                  "coding": [
                    {
                      "system": "http://snomed.info/sct",
                      "code": "90049009",
                      "display": "Unexplained sudden death"
                    }
                  ]
                },
                "outcome": {
                  "coding": [
                    {
                      "system": "http://snomed.info/sct",
                      "code": "876883006",
                      "display": "Died during operation"
                    }
                  ]
                }
              }
            ]
          }
        ],
        "status": "current",
        "mode": "snapshot",
        "code": {
          "coding": [
            {
              "system": "http://loinc.org",
              "code": "8670-2",
              "display": "History of family member diseases"
            }
          ]
        },
        "subject": [
          {
            "reference": "Patient/000dbbfb-8bd9-465d-b824-528924079a10"
          }
        ],
        "note": [
          {
            "text": "Unexplained deaths of two cousins in infancy"
          }
        ],
        "entry": [
          {
            "item": {
              "reference": "#fmh-1"
            }
          }
        ]
      },
      "request": {
        "method": "POST",
        "url": "FamilyMemberHistory"
      }
    }
  ]
}