{
  "resourceType": "Bundle",
  "type": "transaction",
  "entry": [
    {
      "fullUrl": "urn:uuid:41021f37-c9d7-4033-95d7-67c3aab68049",
      "resource": {
        "resourceType": "Patient",
        "id": "41021f37-c9d7-4033-95d7-67c3aab68049",
        "name": [
          {
            "family": "Ivanova",
            "given": [
              "Darya"
            ]
          }
        ],
        "gender": "female",
        "address": [
          {}
        ]
      },
      "request": {
        "method": "POST",
        "url": "Patient"
      }
    },
    {
      "fullUrl": "urn:uuid:a736e8b6-6128-47d3-aaca-65cdfa306da0",
      "resource": {
        "resourceType": "Encounter",
        "id": "a736e8b6-6128-47d3-aaca-65cdfa306da0",
        "identifier": [
          {
            "use": "temp",
            "value": "Encounter_Darya Ivanova_20251017182753"
          }
        ],
        "status": "completed",
        "priority": {
          "coding": [
            {
              "system": "http://snomed.info/sct",
              "code": "17621005",
              "display": "Normal"
            }
          ]
        },
        "type": [
          {
            "coding": [
              {
                "system": "http://snomed.info/sct",
                "code": "11429006",
                "display": "Consultation"
              }
            ]
          }
        ],
        "subject": {
          "reference": "Patient/41021f37-c9d7-4033-95d7-67c3aab68049",
          "display": "Darya Ivanova"
        },
        "reason": [
          {
            "value": [
              {
                "concept": {
                  "text": "fever, skin rash, and enlarged lymph nodes"
                }
              }
            ]
          }
        ]
      },
      "request": {
        "method": "POST",
        "url": "Encounter"
      }
    },
    {
      "fullUrl": "urn:uuid:f263c1f7-8d8f-42f3-8f1d-3b9da1cb681b",
      "resource": {
        "resourceType": "Observation",
        "id": "f263c1f7-8d8f-42f3-8f1d-3b9da1cb681b",
        "status": "final",
        "category": [
          {
            "coding": [
              {
                "system": "http://terminology.hl7.org/CodeSystem/observation-category",
                "code": "laboratory",
                "display": "Laboratory"
              }
            ],
            "text": "Laboratory"
          }
        ],
        "code": {
          "coding": [
            {
              "system": "http://loinc.org",
              "code": "53048-5",
              "display": "Ferritin Fld-mCnc"
            }
          ],
          "text": "Ferritin"
        },
        "subject": {
          "reference": "Patient/41021f37-c9d7-4033-95d7-67c3aab68049"
        },
        "encounter": {
          "reference": "Encounter/a736e8b6-6128-47d3-aaca-65cdfa306da0"
        },
        "effectiveDateTime": "2025-10-16",
        "valueQuantity": {
          "value": 4500.0,
          "unit": "ng/mL",
          "system": "http://unitsofmeasure.org",
          "code": "ng/mL"
        },
        "interpretation": [
          {
            "coding": [
              {
                "system": "http://terminology.hl7.org/CodeSystem/v3-ObservationInterpretation",
                "code": "H",
                "display": "High"
              }
            ]
          }
        ],
        "note": [
          {
            "text": "Definition: https://loinc.org/53048-5/"
          }
        ]
      },
      "request": {
        "method": "POST",
        "url": "Observation"
      }
    },
    {
      "fullUrl": "urn:uuid:c66cf7ec-22f4-4058-8ebf-7e5378c0757c",
      "resource": {
        "resourceType": "Observation",
        "id": "c66cf7ec-22f4-4058-8ebf-7e5378c0757c",
        "status": "final",
        "category": [
          {
            "coding": [
              {
                "system": "http://terminology.hl7.org/CodeSystem/observation-category",
                "code": "laboratory",
                "display": "Laboratory"
              }
            ],
            "text": "Laboratory"
          }
        ],
        "code": {
          "coding": [
            {
              "system": "http://loinc.org",
              "code": "unknown",
              "display": "Liver Enzymes"
            }
          ],
          "text": "Liver Enzymes"
        },
        "subject": {
          "reference": "Patient/41021f37-c9d7-4033-95d7-67c3aab68049"
        },
        "encounter": {
          "reference": "Encounter/a736e8b6-6128-47d3-aaca-65cdfa306da0"
        },
        "effectiveDateTime": "2025-10-16",
        "interpretation": [
          {
            "coding": [
              {
                "system": "http://terminology.hl7.org/CodeSystem/v3-ObservationInterpretation",
                "code": "H",
                "display": "High"
              }
            ]
          }
        ]
      },
      "request": {
        "method": "POST",
        "url": "Observation"
      }
    },
    {
      "fullUrl": "urn:uuid:28444368-bfd5-400c-b40c-e55eb37f7933",
      "resource": {
        "resourceType": "Observation",
        "id": "28444368-bfd5-400c-b40c-e55eb37f7933",
        "status": "final",
        "category": [
          {
            "coding": [
              {
                "system": "http://terminology.hl7.org/CodeSystem/observation-category",
                "code": "laboratory",
                "display": "Laboratory"
              }
            ],
            "text": "Laboratory"
          }
        ],
        "code": {
          "coding": [
            {
              "system": "http://loinc.org",
              "code": "110845-5",
              "display": "E canis Ab Msmt Ser"
            }
          ],
          "text": "Pancytopenia"
        },
        "subject": {
          "reference": "Patient/41021f37-c9d7-4033-95d7-67c3aab68049"
        },
        "encounter": {
          "reference": "Encounter/a736e8b6-6128-47d3-aaca-65cdfa306da0"
        },
        "effectiveDateTime": "2025-10-16",
        "interpretation": [
          {
            "coding": [
              {
                "system": "http://terminology.hl7.org/CodeSystem/v3-ObservationInterpretation",
                "code": "A",
                "display": "Abnormal"
              }
            ]
          }
        ],
        "note": [
          {
            "text": "Definition: https://loinc.org/110845-5/"
          }
        ]
      },
      "request": {
        "method": "POST",
        "url": "Observation"
      }
    },
    {
      "fullUrl": "urn:uuid:a3a03cc3-3068-4ba2-b259-65d7ec1f87e8",
      "resource": {
        "resourceType": "Observation",
        "id": "a3a03cc3-3068-4ba2-b259-65d7ec1f87e8",
        "status": "final",
        "category": [
          {
            "coding": [
              {
                "system": "http://terminology.hl7.org/CodeSystem/observation-category",
                "code": "exam",
                "display": "Exam"
              }
            ],
            "text": "Exam"
          }
        ],
        "code": {
          "coding": [
            {
              "system": "http://snomed.info/sct",
              "code": "386661006",
              "display": "Fever"
            }
          ],
          "text": "Fever"
        },
        "subject": {
          "reference": "Patient/41021f37-c9d7-4033-95d7-67c3aab68049"
        },
        "encounter": {
          "reference": "Encounter/a736e8b6-6128-47d3-aaca-65cdfa306da0"
        },
        "effectivePeriod": {
          "start": "2025-10-16"
        },
        "valueBoolean": true,
        "interpretation": [
          {
            "coding": [
              {
                "system": "http://terminology.hl7.org/CodeSystem/v3-ObservationInterpretation",
                "code": "H",
                "display": "High"
              }
            ],
            "text": "High"
          }
        ],
        "note": [
          {
            "text": "Definition: https://snomed.info/id/386661006"
          }
        ]
      },
      "request": {
        "method": "POST",
        "url": "Observation"
      }
    },
    {
      "fullUrl": "urn:uuid:f6c067b0-a5ce-40f9-b509-c04a49225c79",
      "resource": {
        "resourceType": "Observation",
        "id": "f6c067b0-a5ce-40f9-b509-c04a49225c79",
        "status": "final",
        "category": [
          {
            "coding": [
              {
                "system": "http://terminology.hl7.org/CodeSystem/observation-category",
                "code": "exam",
                "display": "Exam"
              }
            ],
            "text": "Exam"
          }
        ],
        "code": {
          "coding": [
            {
              "system": "http://snomed.info/sct",
              "code": "276719000",
              "display": "Phototherapy skin rash"
            }
          ],
          "text": "Skin Rash"
        },
        "subject": {
          "reference": "Patient/41021f37-c9d7-4033-95d7-67c3aab68049"
        },
        "encounter": {
          "reference": "Encounter/a736e8b6-6128-47d3-aaca-65cdfa306da0"
        },
        "effectivePeriod": {
          "start": "2025-10-16"
        },
        "valueBoolean": true,
        "note": [
          {
            "text": "Definition: https://snomed.info/id/276719000"
          }
        ]
      },
      "request": {
        "method": "POST",
        "url": "Observation"
      }
    },
    {
      "fullUrl": "urn:uuid:dbde2b7c-04b5-49ea-a3cf-b906d7e09439",
      "resource": {
        "resourceType": "Observation",
        "id": "dbde2b7c-04b5-49ea-a3cf-b906d7e09439",
        "status": "final",
        "category": [
          {
            "coding": [
              {
                "system": "http://terminology.hl7.org/CodeSystem/observation-category",
                "code": "exam",
                "display": "Exam"
              }
            ],
            "text": "Exam"
          }
        ],
        "code": {
          "coding": [
            {
              "system": "http://snomed.info/sct",
              "code": "274741002",
              "display": "Generalized enlarged lymph nodes"
            }
          ],
          "text": "Enlarged Lymph Nodes"
        },
        "subject": {
          "reference": "Patient/41021f37-c9d7-4033-95d7-67c3aab68049"
        },
        "encounter": {
          "reference": "Encounter/a736e8b6-6128-47d3-aaca-65cdfa306da0"
        },
        "effectivePeriod": {
          "start": "2025-10-16"
        },
        "valueBoolean": true,
        "note": [
          {
            "text": "Definition: https://snomed.info/id/274741002"
          }
        ]
      },
      "request": {
        "method": "POST",
        "url": "Observation"
      }
    },
    {
      "fullUrl": "urn:uuid:18450647-4440-46f0-8340-2b556a42e516",
      "resource": {
        "resourceType": "Observation",
        "id": "18450647-4440-46f0-8340-2b556a42e516",
        "status": "final",
        "category": [
          {
            "coding": [
              {
                "system": "http://terminology.hl7.org/CodeSystem/observation-category",
                "code": "exam",
                "display": "Exam"
              }
            ],
            "text": "Exam"
          }
        ],
        "code": {
          "coding": [
            {
              "system": "http://snomed.info/sct",
              "code": "816160009",
              "display": "Weight loss"
            }
          ],
          "text": "Weight Loss"
        },
        "subject": {
          "reference": "Patient/41021f37-c9d7-4033-95d7-67c3aab68049"
        },
        "encounter": {
          "reference": "Encounter/a736e8b6-6128-47d3-aaca-65cdfa306da0"
        },
        "effectivePeriod": {
          "start": "2025-10-16"
        },
        "valueBoolean": true,
        "note": [
          {
            "text": "Definition: https://snomed.info/id/816160009"
          }
        ]
      },
      "request": {
        "method": "POST",
        "url": "Observation"
      }
    },
    {
      "fullUrl": "urn:uuid:c57ae3f9-ad61-4166-b37d-8864bef07251",
      "resource": {
        "resourceType": "Observation",
        "id": "c57ae3f9-ad61-4166-b37d-8864bef07251",
        "status": "final",
        "category": [
          {
            "coding": [
              {
                "system": "http://terminology.hl7.org/CodeSystem/observation-category",
                "code": "exam",
                "display": "Exam"
              }
            ],
            "text": "Exam"
          }
        ],
        "code": {
          "coding": [
            {
              "system": "http://snomed.info/sct",
              "code": "214264003",
              "display": "Lethargy"
            }
          ],
          "text": "Lethargy"
        },
        "subject": {
          "reference": "Patient/41021f37-c9d7-4033-95d7-67c3aab68049"
        },
        "encounter": {
          "reference": "Encounter/a736e8b6-6128-47d3-aaca-65cdfa306da0"
        },
        "effectivePeriod": {
          "start": "2025-10-16"
        },
        "valueBoolean": true,
        "note": [
          {
            "text": "Definition: https://snomed.info/id/214264003"
          }
        ]
      },
      "request": {
        "method": "POST",
        "url": "Observation"
      }
    },
    {
      "fullUrl": "urn:uuid:1032fcda-5d05-4595-afe3-1f93ac2f64b1",
      "resource": {
        "resourceType": "Observation",
        "id": "1032fcda-5d05-4595-afe3-1f93ac2f64b1",
        "status": "final",
        "category": [
          {
            "coding": [
              {
                "system": "http://terminology.hl7.org/CodeSystem/observation-category",
                "code": "exam",
                "display": "Exam"
              }
            ],
            "text": "Exam"
          }
        ],
        "code": {
          "coding": [
            {
              "system": "http://snomed.info/sct",
              "code": "95199009",
              "display": "Pallor of liver"
            }
          ],
          "text": "Pallor"
        },
        "subject": {
          "reference": "Patient/41021f37-c9d7-4033-95d7-67c3aab68049"
        },
        "encounter": {
          "reference": "Encounter/a736e8b6-6128-47d3-aaca-65cdfa306da0"
        },
        "effectivePeriod": {
          "start": "2025-10-16"
        },
        "valueBoolean": true,
        "note": [
          {
            "text": "Definition: https://snomed.info/id/95199009"
          }
        ]
      },
      "request": {
        "method": "POST",
        "url": "Observation"
      }
    },
    {
      "fullUrl": "urn:uuid:0991a7a1-3802-4b43-8134-4b74631999e2",
      "resource": {
        "resourceType": "Observation",
        "id": "0991a7a1-3802-4b43-8134-4b74631999e2",
        "status": "final",
        "category": [
          {
            "coding": [
              {
                "system": "http://terminology.hl7.org/CodeSystem/observation-category",
                "code": "vital-signs",
                "display": "Vital Signs"
              }
            ],
            "text": "Vital Signs"
          }
        ],
        "code": {
          "coding": [
            {
              "system": "http://loinc.org",
              "code": "8310-5",
              "display": "Body temperature"
            }
          ],
          "text": "Body Temperature"
        },
        "subject": {
          "reference": "Patient/41021f37-c9d7-4033-95d7-67c3aab68049"
        },
        "encounter": {
          "reference": "Encounter/a736e8b6-6128-47d3-aaca-65cdfa306da0"
        },
        "effectiveDateTime": "2025-10-16",
        "valueQuantity": {
          "value": 38.9,
          "unit": "°C",
          "system": "http://unitsofmeasure.org",
          "code": "°C"
        },
        "interpretation": [
          {
            "coding": [
              {
                "system": "http://terminology.hl7.org/CodeSystem/v3-ObservationInterpretation",
                "code": "H",
                "display": "High"
              }
            ],
            "text": "High"
          }
        ]
      },
      "request": {
        "method": "POST",
        "url": "Observation"
      }
    },
    {
      "fullUrl": "urn:uuid:d86c8717-2597-434b-bea6-0159a12f5174",
      "resource": {
        "resourceType": "List",
        "id": "d86c8717-2597-434b-bea6-0159a12f5174",
        "contained": [
          {
            "resourceType": "FamilyMemberHistory",
            "id": "fmh-1",
            "status": "completed",
            "patient": {
              "reference": "Patient/41021f37-c9d7-4033-95d7-67c3aab68049"
            },
            "relationship": {
              "coding": [
                {
                  "system": "http://snomed.info/sct",
                  "code": "70924004",
                  "display": "Brother"
                }
              ]
            },
            "deceasedBoolean": true,
            "condition": [
              {
                "code": {
                  "coding": [
                    {
                      "system": "http://snomed.info/sct",
                      "code": "234437005",
                      "display": "Hemophagocytic lymphohistiocytosis"
                    }
                  ]
                },
                "outcome": {
                  "coding": [
                    {
                      "system": "http://snomed.info/sct",
                      "code": "876883006",
                      "display": "Died during operation"
                    }
                  ]
                }
              }
            ]
          }
        ],
        "status": "current",
        "mode": "snapshot",
        "code": {
          "coding": [
            {
              "system": "http://loinc.org",
              "code": "8670-2",
              "display": "History of family member diseases"
            }
          ]
        },
        "subject": [
          {
            "reference": "Patient/41021f37-c9d7-4033-95d7-67c3aab68049"
          }
        ],
        "entry": [
          {
            "item": {
              "reference": "#fmh-1"
            }
          }
        ]
      },
      "request": {
        "method": "POST",
        "url": "FamilyMemberHistory"
      }
    }
  ]
}