{
  "resourceType": "Bundle",
  "type": "transaction",
  "entry": [
    {
      "fullUrl": "urn:uuid:de2a2c42-dc4a-421a-acba-a54af64c0c56",
      "resource": {
        "resourceType": "Patient",
        "id": "de2a2c42-dc4a-421a-acba-a54af64c0c56",
        "name": [
          {
            "family": "Karpov",
            "given": [
              "Maxim"
            ]
          }
        ],
        "gender": "male",
        "birthDate": "2019-01-01",
        "address": [
          {}
        ]
      },
      "request": {
        "method": "POST",
        "url": "Patient"
      }
    },
    {
      "fullUrl": "urn:uuid:a26c3c37-a6a8-4e4d-8e44-67fad7afc6f2",
      "resource": {
        "resourceType": "Encounter",
        "id": "a26c3c37-a6a8-4e4d-8e44-67fad7afc6f2",
        "identifier": [
          {
            "use": "temp",
            "value": "Encounter_Maxim Karpov_20251022152250"
          }
        ],
        "status": "completed",
        "priority": {
          "coding": [
            {
              "system": "http://snomed.info/sct",
              "code": "17621005",
              "display": "Normal"
            }
          ]
        },
        "type": [
          {
            "coding": [
              {
                "system": "http://snomed.info/sct",
                "code": "11429006",
                "display": "Consultation"
              }
            ]
          }
        ],
        "subject": {
          "reference": "Patient/de2a2c42-dc4a-421a-acba-a54af64c0c56",
          "display": "Maxim Karpov"
        },
        "reason": [
          {
            "value": [
              {
                "concept": {
                  "text": "persistent fever, rash, and hepatosplenomegaly"
                }
              }
            ]
          }
        ]
      },
      "request": {
        "method": "POST",
        "url": "Encounter"
      }
    },
    {
      "fullUrl": "urn:uuid:dc6ddb48-3e38-4e09-aceb-8f4f188487f0",
      "resource": {
        "resourceType": "Observation",
        "id": "dc6ddb48-3e38-4e09-aceb-8f4f188487f0",
        "status": "final",
        "category": [
          {
            "coding": [
              {
                "system": "http://terminology.hl7.org/CodeSystem/observation-category",
                "code": "laboratory",
                "display": "Laboratory"
              }
            ],
            "text": "Laboratory"
          }
        ],
        "code": {
          "coding": [
            {
              "system": "http://loinc.org",
              "code": "53048-5",
              "display": "Ferritin Fld-mCnc"
            }
          ],
          "text": "Ferritin"
        },
        "subject": {
          "reference": "Patient/de2a2c42-dc4a-421a-acba-a54af64c0c56"
        },
        "encounter": {
          "reference": "Encounter/a26c3c37-a6a8-4e4d-8e44-67fad7afc6f2"
        },
        "effectiveDateTime": "2025-10-16",
        "valueQuantity": {
          "value": 6000.0,
          "unit": "ng/mL",
          "system": "http://unitsofmeasure.org",
          "code": "ng/mL"
        },
        "interpretation": [
          {
            "coding": [
              {
                "system": "http://terminology.hl7.org/CodeSystem/v3-ObservationInterpretation",
                "code": "H",
                "display": "High"
              }
            ]
          }
        ],
        "note": [
          {
            "text": "Definition: https://loinc.org/53048-5/"
          }
        ]
      },
      "request": {
        "method": "POST",
        "url": "Observation"
      }
    },
    {
      "fullUrl": "urn:uuid:fa6ade0d-6c9d-4523-a668-d9e53cc053a0",
      "resource": {
        "resourceType": "Observation",
        "id": "fa6ade0d-6c9d-4523-a668-d9e53cc053a0",
        "status": "final",
        "category": [
          {
            "coding": [
              {
                "system": "http://terminology.hl7.org/CodeSystem/observation-category",
                "code": "laboratory",
                "display": "Laboratory"
              }
            ],
            "text": "Laboratory"
          }
        ],
        "code": {
          "coding": [
            {
              "system": "http://loinc.org",
              "code": "2546-0",
              "display": "LDH4 SerPl-cCnc"
            }
          ],
          "text": "Lactate Dehydrogenase (LDH)"
        },
        "subject": {
          "reference": "Patient/de2a2c42-dc4a-421a-acba-a54af64c0c56"
        },
        "encounter": {
          "reference": "Encounter/a26c3c37-a6a8-4e4d-8e44-67fad7afc6f2"
        },
        "effectiveDateTime": "2025-10-16",
        "interpretation": [
          {
            "coding": [
              {
                "system": "http://terminology.hl7.org/CodeSystem/v3-ObservationInterpretation",
                "code": "H",
                "display": "High"
              }
            ]
          }
        ],
        "note": [
          {
            "text": "Definition: https://loinc.org/2546-0/"
          }
        ]
      },
      "request": {
        "method": "POST",
        "url": "Observation"
      }
    },
    {
      "fullUrl": "urn:uuid:06624210-22a2-46c6-af9f-e8cfa06660f0",
      "resource": {
        "resourceType": "Observation",
        "id": "06624210-22a2-46c6-af9f-e8cfa06660f0",
        "status": "final",
        "category": [
          {
            "coding": [
              {
                "system": "http://terminology.hl7.org/CodeSystem/observation-category",
                "code": "laboratory",
                "display": "Laboratory"
              }
            ],
            "text": "Laboratory"
          }
        ],
        "code": {
          "coding": [
            {
              "system": "http://loinc.org",
              "code": "93340-8",
              "display": "PhenX - complete blood count protocol 220501"
            }
          ],
          "text": "CBC"
        },
        "subject": {
          "reference": "Patient/de2a2c42-dc4a-421a-acba-a54af64c0c56"
        },
        "encounter": {
          "reference": "Encounter/a26c3c37-a6a8-4e4d-8e44-67fad7afc6f2"
        },
        "effectiveDateTime": "2025-10-16",
        "interpretation": [
          {
            "coding": [
              {
                "system": "http://terminology.hl7.org/CodeSystem/v3-ObservationInterpretation",
                "code": "A",
                "display": "Abnormal"
              }
            ]
          }
        ],
        "note": [
          {
            "text": "Definition: https://loinc.org/93340-8/"
          }
        ]
      },
      "request": {
        "method": "POST",
        "url": "Observation"
      }
    },
    {
      "fullUrl": "urn:uuid:93f0f089-eb75-4b57-b22b-2f1d1a306efa",
      "resource": {
        "resourceType": "Observation",
        "id": "93f0f089-eb75-4b57-b22b-2f1d1a306efa",
        "status": "final",
        "category": [
          {
            "coding": [
              {
                "system": "http://terminology.hl7.org/CodeSystem/observation-category",
                "code": "exam",
                "display": "Exam"
              }
            ],
            "text": "Exam"
          }
        ],
        "code": {
          "coding": [
            {
              "system": "http://snomed.info/sct",
              "code": "386661006",
              "display": "Fever"
            }
          ],
          "text": "Fever"
        },
        "subject": {
          "reference": "Patient/de2a2c42-dc4a-421a-acba-a54af64c0c56"
        },
        "encounter": {
          "reference": "Encounter/a26c3c37-a6a8-4e4d-8e44-67fad7afc6f2"
        },
        "effectivePeriod": {
          "start": "2025-10-16"
        },
        "valueBoolean": true,
        "note": [
          {
            "text": "Definition: https://snomed.info/id/386661006"
          }
        ]
      },
      "request": {
        "method": "POST",
        "url": "Observation"
      }
    },
    {
      "fullUrl": "urn:uuid:008ab495-e18f-4de6-95f2-74bbb6d5965c",
      "resource": {
        "resourceType": "Observation",
        "id": "008ab495-e18f-4de6-95f2-74bbb6d5965c",
        "status": "final",
        "category": [
          {
            "coding": [
              {
                "system": "http://terminology.hl7.org/CodeSystem/observation-category",
                "code": "exam",
                "display": "Exam"
              }
            ],
            "text": "Exam"
          }
        ],
        "code": {
          "coding": [
            {
              "system": "http://snomed.info/sct",
              "code": "89757007",
              "display": "Macular rash"
            }
          ],
          "text": "Rash"
        },
        "subject": {
          "reference": "Patient/de2a2c42-dc4a-421a-acba-a54af64c0c56"
        },
        "encounter": {
          "reference": "Encounter/a26c3c37-a6a8-4e4d-8e44-67fad7afc6f2"
        },
        "effectivePeriod": {
          "start": "2025-10-16"
        },
        "valueBoolean": true,
        "note": [
          {
            "text": "Definition: https://snomed.info/id/89757007"
          }
        ]
      },
      "request": {
        "method": "POST",
        "url": "Observation"
      }
    },
    {
      "fullUrl": "urn:uuid:fb583740-ec2a-418d-809d-568f2c0dee9e",
      "resource": {
        "resourceType": "Observation",
        "id": "fb583740-ec2a-418d-809d-568f2c0dee9e",
        "status": "final",
        "category": [
          {
            "coding": [
              {
                "system": "http://terminology.hl7.org/CodeSystem/observation-category",
                "code": "exam",
                "display": "Exam"
              }
            ],
            "text": "Exam"
          }
        ],
        "code": {
          "coding": [
            {
              "system": "http://snomed.info/sct",
              "code": "36760000",
              "display": "Hepatosplenomegaly"
            }
          ],
          "text": "Hepatosplenomegaly"
        },
        "subject": {
          "reference": "Patient/de2a2c42-dc4a-421a-acba-a54af64c0c56"
        },
        "encounter": {
          "reference": "Encounter/a26c3c37-a6a8-4e4d-8e44-67fad7afc6f2"
        },
        "effectivePeriod": {
          "start": "2025-10-16"
        },
        "valueBoolean": true,
        "note": [
          {
            "text": "Definition: https://snomed.info/id/36760000"
          }
        ]
      },
      "request": {
        "method": "POST",
        "url": "Observation"
      }
    },
    {
      "fullUrl": "urn:uuid:1ac46f40-2cff-447f-86f6-8163242e688f",
      "resource": {
        "resourceType": "Observation",
        "id": "1ac46f40-2cff-447f-86f6-8163242e688f",
        "status": "final",
        "category": [
          {
            "coding": [
              {
                "system": "http://terminology.hl7.org/CodeSystem/observation-category",
                "code": "exam",
                "display": "Exam"
              }
            ],
            "text": "Exam"
          }
        ],
        "code": {
          "coding": [
            {
              "system": "http://snomed.info/sct",
              "code": "95199009",
              "display": "Pallor of liver"
            }
          ],
          "text": "Pallor"
        },
        "subject": {
          "reference": "Patient/de2a2c42-dc4a-421a-acba-a54af64c0c56"
        },
        "encounter": {
          "reference": "Encounter/a26c3c37-a6a8-4e4d-8e44-67fad7afc6f2"
        },
        "effectivePeriod": {
          "start": "2025-10-16"
        },
        "valueBoolean": true,
        "note": [
          {
            "text": "Definition: https://snomed.info/id/95199009"
          }
        ]
      },
      "request": {
        "method": "POST",
        "url": "Observation"
      }
    },
    {
      "fullUrl": "urn:uuid:75e4c2af-6415-46d0-beed-4d806ce5fdf8",
      "resource": {
        "resourceType": "Observation",
        "id": "75e4c2af-6415-46d0-beed-4d806ce5fdf8",
        "status": "final",
        "category": [
          {
            "coding": [
              {
                "system": "http://terminology.hl7.org/CodeSystem/observation-category",
                "code": "exam",
                "display": "Exam"
              }
            ],
            "text": "Exam"
          }
        ],
        "code": {
          "coding": [
            {
              "system": "http://snomed.info/sct",
              "code": "214264003",
              "display": "Lethargy"
            }
          ],
          "text": "Lethargy"
        },
        "subject": {
          "reference": "Patient/de2a2c42-dc4a-421a-acba-a54af64c0c56"
        },
        "encounter": {
          "reference": "Encounter/a26c3c37-a6a8-4e4d-8e44-67fad7afc6f2"
        },
        "effectivePeriod": {
          "start": "2025-10-16"
        },
        "valueBoolean": true,
        "note": [
          {
            "text": "Definition: https://snomed.info/id/214264003"
          }
        ]
      },
      "request": {
        "method": "POST",
        "url": "Observation"
      }
    },
    {
      "fullUrl": "urn:uuid:3e60197a-033d-47bc-9578-3d2b74e7d8b9",
      "resource": {
        "resourceType": "List",
        "id": "3e60197a-033d-47bc-9578-3d2b74e7d8b9",
        "contained": [
          {
            "resourceType": "FamilyMemberHistory",
            "id": "fmh-1",
            "status": "completed",
            "patient": {
              "reference": "Patient/de2a2c42-dc4a-421a-acba-a54af64c0c56"
            },
            "relationship": {
              "coding": [
                {
                  "system": "http://snomed.info/sct",
                  "code": "55538000",
                  "display": "Cousin"
                }
              ]
            },
            "deceasedBoolean": true,
            "condition": [
              {
                "code": {
                  "coding": [
                    {
                      "system": "http://snomed.info/sct",
                      "code": "90049009",
                      "display": "Unexplained sudden death"
                    }
                  ]
                },
                "outcome": {
                  "coding": [
                    {
                      "system": "http://snomed.info/sct",
                      "code": "876883006",
                      "display": "Died during operation"
                    }
                  ]
                }
              }
            ]
          }
        ],
        "status": "current",
        "mode": "snapshot",
        "code": {
          "coding": [
            {
              "system": "http://loinc.org",
              "code": "8670-2",
              "display": "History of family member diseases"
            }
          ]
        },
        "subject": [
          {
            "reference": "Patient/de2a2c42-dc4a-421a-acba-a54af64c0c56"
          }
        ],
        "entry": [
          {
            "item": {
              "reference": "#fmh-1"
            }
          }
        ]
      },
      "request": {
        "method": "POST",
        "url": "FamilyMemberHistory"
      }
    }
  ]
}