{
  "resourceType": "Bundle",
  "type": "transaction",
  "entry": [
    {
      "fullUrl": "urn:uuid:0f1ce01f-3abb-42d1-8f3f-f49efc6a973f",
      "resource": {
        "resourceType": "Patient",
        "id": "0f1ce01f-3abb-42d1-8f3f-f49efc6a973f",
        "name": [
          {
            "family": "Rodriguez",
            "given": [
              "Sofia"
            ]
          }
        ],
        "gender": "female",
        "birthDate": "1997-01-01",
        "address": [
          {}
        ]
      },
      "request": {
        "method": "POST",
        "url": "Patient"
      }
    },
    {
      "fullUrl": "urn:uuid:065dc947-b4ab-4574-abf8-98bcf5253456",
      "resource": {
        "resourceType": "Encounter",
        "id": "065dc947-b4ab-4574-abf8-98bcf5253456",
        "identifier": [
          {
            "use": "temp",
            "value": "Encounter_Sofia Rodriguez_20251021093814"
          }
        ],
        "status": "completed",
        "priority": {
          "coding": [
            {
              "system": "http://snomed.info/sct",
              "code": "17621005",
              "display": "Normal"
            }
          ]
        },
        "type": [
          {
            "coding": [
              {
                "system": "http://snomed.info/sct",
                "code": "11429006",
                "display": "Consultation"
              }
            ]
          }
        ],
        "subject": {
          "reference": "Patient/0f1ce01f-3abb-42d1-8f3f-f49efc6a973f",
          "display": "Sofia Rodriguez"
        },
        "reason": [
          {
            "value": [
              {
                "concept": {
                  "text": "intermittent fever and fatigue"
                }
              }
            ]
          }
        ]
      },
      "request": {
        "method": "POST",
        "url": "Encounter"
      }
    },
    {
      "fullUrl": "urn:uuid:53a15f30-f950-40c7-9494-01504d239cbd",
      "resource": {
        "resourceType": "Observation",
        "id": "53a15f30-f950-40c7-9494-01504d239cbd",
        "status": "final",
        "category": [
          {
            "coding": [
              {
                "system": "http://terminology.hl7.org/CodeSystem/observation-category",
                "code": "laboratory",
                "display": "Laboratory"
              }
            ],
            "text": "Laboratory"
          }
        ],
        "code": {
          "coding": [
            {
              "system": "http://loinc.org",
              "code": "26464-8",
              "display": "WBC # Bld"
            }
          ],
          "text": "White Blood Cell Count"
        },
        "subject": {
          "reference": "Patient/0f1ce01f-3abb-42d1-8f3f-f49efc6a973f"
        },
        "encounter": {
          "reference": "Encounter/065dc947-b4ab-4574-abf8-98bcf5253456"
        },
        "effectiveDateTime": "2025-10-16",
        "valueQuantity": {
          "value": 12000.0,
          "unit": "cells per microliter",
          "system": "http://unitsofmeasure.org",
          "code": "cells per microliter"
        },
        "interpretation": [
          {
            "coding": [
              {
                "system": "http://terminology.hl7.org/CodeSystem/v3-ObservationInterpretation",
                "code": "H",
                "display": "High"
              }
            ]
          }
        ],
        "note": [
          {
            "text": "Definition: https://loinc.org/26464-8/"
          }
        ]
      },
      "request": {
        "method": "POST",
        "url": "Observation"
      }
    },
    {
      "fullUrl": "urn:uuid:ff68edd7-ca2a-4c02-88d8-d2a0ef2b73a4",
      "resource": {
        "resourceType": "Observation",
        "id": "ff68edd7-ca2a-4c02-88d8-d2a0ef2b73a4",
        "status": "final",
        "category": [
          {
            "coding": [
              {
                "system": "http://terminology.hl7.org/CodeSystem/observation-category",
                "code": "laboratory",
                "display": "Laboratory"
              }
            ],
            "text": "Laboratory"
          }
        ],
        "code": {
          "coding": [
            {
              "system": "http://loinc.org",
              "code": "62854-5",
              "display": "PhenX - glycosylated hemoglobin assay reflecting long-term glucose concentration protocol 140901"
            }
          ],
          "text": "Hemoglobin"
        },
        "subject": {
          "reference": "Patient/0f1ce01f-3abb-42d1-8f3f-f49efc6a973f"
        },
        "encounter": {
          "reference": "Encounter/065dc947-b4ab-4574-abf8-98bcf5253456"
        },
        "effectiveDateTime": "2025-10-16",
        "valueQuantity": {
          "value": 11.5,
          "unit": "grams per deciliter",
          "system": "http://unitsofmeasure.org",
          "code": "grams per deciliter"
        },
        "interpretation": [
          {
            "coding": [
              {
                "system": "http://terminology.hl7.org/CodeSystem/v3-ObservationInterpretation",
                "code": "L",
                "display": "Low"
              }
            ]
          }
        ],
        "note": [
          {
            "text": "Definition: https://loinc.org/62854-5/"
          }
        ]
      },
      "request": {
        "method": "POST",
        "url": "Observation"
      }
    },
    {
      "fullUrl": "urn:uuid:06c1b056-ed41-4ef9-90b1-3d3ebe3a1508",
      "resource": {
        "resourceType": "Observation",
        "id": "06c1b056-ed41-4ef9-90b1-3d3ebe3a1508",
        "status": "final",
        "category": [
          {
            "coding": [
              {
                "system": "http://terminology.hl7.org/CodeSystem/observation-category",
                "code": "laboratory",
                "display": "Laboratory"
              }
            ],
            "text": "Laboratory"
          }
        ],
        "code": {
          "coding": [
            {
              "system": "http://loinc.org",
              "code": "74775-8",
              "display": "Platelet # PRP Auto"
            }
          ],
          "text": "Platelet Count"
        },
        "subject": {
          "reference": "Patient/0f1ce01f-3abb-42d1-8f3f-f49efc6a973f"
        },
        "encounter": {
          "reference": "Encounter/065dc947-b4ab-4574-abf8-98bcf5253456"
        },
        "effectiveDateTime": "2025-10-16",
        "valueQuantity": {
          "value": 90000.0,
          "unit": "cells per microliter",
          "system": "http://unitsofmeasure.org",
          "code": "cells per microliter"
        },
        "interpretation": [
          {
            "coding": [
              {
                "system": "http://terminology.hl7.org/CodeSystem/v3-ObservationInterpretation",
                "code": "L",
                "display": "Low"
              }
            ]
          }
        ],
        "note": [
          {
            "text": "Definition: https://loinc.org/74775-8/"
          }
        ]
      },
      "request": {
        "method": "POST",
        "url": "Observation"
      }
    },
    {
      "fullUrl": "urn:uuid:70f62d77-31cf-4de5-99dd-a7958c771b47",
      "resource": {
        "resourceType": "Observation",
        "id": "70f62d77-31cf-4de5-99dd-a7958c771b47",
        "status": "final",
        "category": [
          {
            "coding": [
              {
                "system": "http://terminology.hl7.org/CodeSystem/observation-category",
                "code": "laboratory",
                "display": "Laboratory"
              }
            ],
            "text": "Laboratory"
          }
        ],
        "code": {
          "coding": [
            {
              "system": "http://loinc.org",
              "code": "1916-6",
              "display": "AST/ALT SerPl-cRto"
            }
          ],
          "text": "Alanine Transaminase"
        },
        "subject": {
          "reference": "Patient/0f1ce01f-3abb-42d1-8f3f-f49efc6a973f"
        },
        "encounter": {
          "reference": "Encounter/065dc947-b4ab-4574-abf8-98bcf5253456"
        },
        "effectiveDateTime": "2025-10-16",
        "valueQuantity": {
          "value": 45.0,
          "unit": "units per liter",
          "system": "http://unitsofmeasure.org",
          "code": "units per liter"
        },
        "interpretation": [
          {
            "coding": [
              {
                "system": "http://terminology.hl7.org/CodeSystem/v3-ObservationInterpretation",
                "code": "H",
                "display": "High"
              }
            ]
          }
        ],
        "note": [
          {
            "text": "Definition: https://loinc.org/1916-6/"
          }
        ]
      },
      "request": {
        "method": "POST",
        "url": "Observation"
      }
    },
    {
      "fullUrl": "urn:uuid:1eb6eac9-1e3a-41c5-b88e-7df7ce9000ac",
      "resource": {
        "resourceType": "Observation",
        "id": "1eb6eac9-1e3a-41c5-b88e-7df7ce9000ac",
        "status": "final",
        "category": [
          {
            "coding": [
              {
                "system": "http://terminology.hl7.org/CodeSystem/observation-category",
                "code": "laboratory",
                "display": "Laboratory"
              }
            ],
            "text": "Laboratory"
          }
        ],
        "code": {
          "coding": [
            {
              "system": "http://loinc.org",
              "code": "1917-4",
              "display": "AST Amn-cCnc"
            }
          ],
          "text": "Aspartate Transaminase"
        },
        "subject": {
          "reference": "Patient/0f1ce01f-3abb-42d1-8f3f-f49efc6a973f"
        },
        "encounter": {
          "reference": "Encounter/065dc947-b4ab-4574-abf8-98bcf5253456"
        },
        "effectiveDateTime": "2025-10-16",
        "valueQuantity": {
          "value": 30.0,
          "unit": "units per liter",
          "system": "http://unitsofmeasure.org",
          "code": "units per liter"
        },
        "interpretation": [
          {
            "coding": [
              {
                "system": "http://terminology.hl7.org/CodeSystem/v3-ObservationInterpretation",
                "code": "H",
                "display": "High"
              }
            ]
          }
        ],
        "note": [
          {
            "text": "Definition: https://loinc.org/1917-4/"
          }
        ]
      },
      "request": {
        "method": "POST",
        "url": "Observation"
      }
    },
    {
      "fullUrl": "urn:uuid:99cacbe3-547e-48a3-9c78-d1acc1fdffa0",
      "resource": {
        "resourceType": "Observation",
        "id": "99cacbe3-547e-48a3-9c78-d1acc1fdffa0",
        "status": "final",
        "category": [
          {
            "coding": [
              {
                "system": "http://terminology.hl7.org/CodeSystem/observation-category",
                "code": "exam",
                "display": "Exam"
              }
            ],
            "text": "Exam"
          }
        ],
        "code": {
          "coding": [
            {
              "system": "http://snomed.info/sct",
              "code": "386661006",
              "display": "Fever"
            }
          ],
          "text": "Fever"
        },
        "subject": {
          "reference": "Patient/0f1ce01f-3abb-42d1-8f3f-f49efc6a973f"
        },
        "encounter": {
          "reference": "Encounter/065dc947-b4ab-4574-abf8-98bcf5253456"
        },
        "effectivePeriod": {
          "start": "2025-10-16"
        },
        "valueBoolean": true,
        "interpretation": [
          {
            "coding": [
              {
                "system": "http://terminology.hl7.org/CodeSystem/v3-ObservationInterpretation",
                "code": "H",
                "display": "High"
              }
            ],
            "text": "High"
          }
        ],
        "note": [
          {
            "text": "Definition: https://snomed.info/id/386661006"
          }
        ]
      },
      "request": {
        "method": "POST",
        "url": "Observation"
      }
    },
    {
      "fullUrl": "urn:uuid:92a5f601-a27c-4663-9b30-8be5d24eb8ac",
      "resource": {
        "resourceType": "Observation",
        "id": "92a5f601-a27c-4663-9b30-8be5d24eb8ac",
        "status": "final",
        "category": [
          {
            "coding": [
              {
                "system": "http://terminology.hl7.org/CodeSystem/observation-category",
                "code": "exam",
                "display": "Exam"
              }
            ],
            "text": "Exam"
          }
        ],
        "code": {
          "coding": [
            {
              "system": "http://snomed.info/sct",
              "code": "84229001",
              "display": "Fatigue"
            }
          ],
          "text": "Fatigue"
        },
        "subject": {
          "reference": "Patient/0f1ce01f-3abb-42d1-8f3f-f49efc6a973f"
        },
        "encounter": {
          "reference": "Encounter/065dc947-b4ab-4574-abf8-98bcf5253456"
        },
        "effectivePeriod": {
          "start": "2025-10-16"
        },
        "valueBoolean": true,
        "note": [
          {
            "text": "Definition: https://snomed.info/id/84229001"
          }
        ]
      },
      "request": {
        "method": "POST",
        "url": "Observation"
      }
    },
    {
      "fullUrl": "urn:uuid:3a39dfd8-6022-48fd-b876-66d13841a0f7",
      "resource": {
        "resourceType": "Observation",
        "id": "3a39dfd8-6022-48fd-b876-66d13841a0f7",
        "status": "final",
        "category": [
          {
            "coding": [
              {
                "system": "http://terminology.hl7.org/CodeSystem/observation-category",
                "code": "exam",
                "display": "Exam"
              }
            ],
            "text": "Exam"
          }
        ],
        "code": {
          "coding": [
            {
              "system": "http://snomed.info/sct",
              "code": "42984000",
              "display": "Night sweats"
            }
          ],
          "text": "Night Sweats"
        },
        "subject": {
          "reference": "Patient/0f1ce01f-3abb-42d1-8f3f-f49efc6a973f"
        },
        "encounter": {
          "reference": "Encounter/065dc947-b4ab-4574-abf8-98bcf5253456"
        },
        "effectivePeriod": {
          "start": "2025-10-16"
        },
        "valueBoolean": true,
        "note": [
          {
            "text": "Definition: https://snomed.info/id/42984000"
          }
        ]
      },
      "request": {
        "method": "POST",
        "url": "Observation"
      }
    },
    {
      "fullUrl": "urn:uuid:c546da98-8713-4958-969a-937f23969037",
      "resource": {
        "resourceType": "Observation",
        "id": "c546da98-8713-4958-969a-937f23969037",
        "status": "final",
        "category": [
          {
            "coding": [
              {
                "system": "http://terminology.hl7.org/CodeSystem/observation-category",
                "code": "vital-signs",
                "display": "Vital Signs"
              }
            ],
            "text": "Vital Signs"
          }
        ],
        "code": {
          "coding": [
            {
              "system": "http://loinc.org",
              "code": "18684-1",
              "display": "Blood pressure"
            }
          ],
          "text": "Blood Pressure"
        },
        "subject": {
          "reference": "Patient/0f1ce01f-3abb-42d1-8f3f-f49efc6a973f"
        },
        "encounter": {
          "reference": "Encounter/065dc947-b4ab-4574-abf8-98bcf5253456"
        },
        "effectiveDateTime": "2025-10-16",
        "valueQuantity": {
          "value": 120.0,
          "unit": "mmHg",
          "system": "http://unitsofmeasure.org",
          "code": "mmHg"
        },
        "interpretation": [
          {
            "coding": [
              {
                "system": "http://terminology.hl7.org/CodeSystem/v3-ObservationInterpretation",
                "code": "N",
                "display": "Normal"
              }
            ],
            "text": "Normal"
          }
        ]
      },
      "request": {
        "method": "POST",
        "url": "Observation"
      }
    },
    {
      "fullUrl": "urn:uuid:4f39349c-dfc9-404e-9ff0-deb9a31d73e8",
      "resource": {
        "resourceType": "Observation",
        "id": "4f39349c-dfc9-404e-9ff0-deb9a31d73e8",
        "status": "final",
        "category": [
          {
            "coding": [
              {
                "system": "http://terminology.hl7.org/CodeSystem/observation-category",
                "code": "vital-signs",
                "display": "Vital Signs"
              }
            ],
            "text": "Vital Signs"
          }
        ],
        "code": {
          "coding": [
            {
              "system": "http://loinc.org",
              "code": "62733-1",
              "display": "PhenX - respiratory - pulse oximetry - rest protocol 091101"
            }
          ],
          "text": "Pulse"
        },
        "subject": {
          "reference": "Patient/0f1ce01f-3abb-42d1-8f3f-f49efc6a973f"
        },
        "encounter": {
          "reference": "Encounter/065dc947-b4ab-4574-abf8-98bcf5253456"
        },
        "effectiveDateTime": "2025-10-16",
        "valueQuantity": {
          "value": 100.0,
          "unit": "bpm",
          "system": "http://unitsofmeasure.org",
          "code": "bpm"
        },
        "interpretation": [
          {
            "coding": [
              {
                "system": "http://terminology.hl7.org/CodeSystem/v3-ObservationInterpretation",
                "code": "H",
                "display": "High"
              }
            ],
            "text": "High"
          }
        ]
      },
      "request": {
        "method": "POST",
        "url": "Observation"
      }
    },
    {
      "fullUrl": "urn:uuid:d4a24491-31cf-42c8-9ce5-8eb4bfa30ade",
      "resource": {
        "resourceType": "Observation",
        "id": "d4a24491-31cf-42c8-9ce5-8eb4bfa30ade",
        "status": "final",
        "category": [
          {
            "coding": [
              {
                "system": "http://terminology.hl7.org/CodeSystem/observation-category",
                "code": "vital-signs",
                "display": "Vital Signs"
              }
            ],
            "text": "Vital Signs"
          }
        ],
        "code": {
          "coding": [
            {
              "system": "http://loinc.org",
              "code": "9279-1",
              "display": "Resp rate"
            }
          ],
          "text": "Respiratory Rate"
        },
        "subject": {
          "reference": "Patient/0f1ce01f-3abb-42d1-8f3f-f49efc6a973f"
        },
        "encounter": {
          "reference": "Encounter/065dc947-b4ab-4574-abf8-98bcf5253456"
        },
        "effectiveDateTime": "2025-10-16",
        "valueQuantity": {
          "value": 18.0,
          "unit": "breaths per minute",
          "system": "http://unitsofmeasure.org",
          "code": "breaths per minute"
        },
        "interpretation": [
          {
            "coding": [
              {
                "system": "http://terminology.hl7.org/CodeSystem/v3-ObservationInterpretation",
                "code": "N",
                "display": "Normal"
              }
            ],
            "text": "Normal"
          }
        ]
      },
      "request": {
        "method": "POST",
        "url": "Observation"
      }
    },
    {
      "fullUrl": "urn:uuid:cdf7a759-28b0-4013-ae46-ea95a9af6f59",
      "resource": {
        "resourceType": "Observation",
        "id": "cdf7a759-28b0-4013-ae46-ea95a9af6f59",
        "status": "final",
        "category": [
          {
            "coding": [
              {
                "system": "http://terminology.hl7.org/CodeSystem/observation-category",
                "code": "vital-signs",
                "display": "Vital Signs"
              }
            ],
            "text": "Vital Signs"
          }
        ],
        "code": {
          "coding": [
            {
              "system": "http://loinc.org",
              "code": "2717-7",
              "display": "OxyHgb MFr Plas"
            }
          ],
          "text": "Oxygen Saturation"
        },
        "subject": {
          "reference": "Patient/0f1ce01f-3abb-42d1-8f3f-f49efc6a973f"
        },
        "encounter": {
          "reference": "Encounter/065dc947-b4ab-4574-abf8-98bcf5253456"
        },
        "effectiveDateTime": "2025-10-16",
        "valueQuantity": {
          "value": 98.0,
          "unit": "%",
          "system": "http://unitsofmeasure.org",
          "code": "%"
        },
        "interpretation": [
          {
            "coding": [
              {
                "system": "http://terminology.hl7.org/CodeSystem/v3-ObservationInterpretation",
                "code": "N",
                "display": "Normal"
              }
            ],
            "text": "Normal"
          }
        ]
      },
      "request": {
        "method": "POST",
        "url": "Observation"
      }
    },
    {
      "fullUrl": "urn:uuid:cbde4dfb-9c0c-4ea8-8908-ad19cab5e962",
      "resource": {
        "resourceType": "Observation",
        "id": "cbde4dfb-9c0c-4ea8-8908-ad19cab5e962",
        "status": "final",
        "category": [
          {
            "coding": [
              {
                "system": "http://terminology.hl7.org/CodeSystem/observation-category",
                "code": "vital-signs",
                "display": "Vital Signs"
              }
            ],
            "text": "Vital Signs"
          }
        ],
        "code": {
          "coding": [
            {
              "system": "http://loinc.org",
              "code": "8337-8",
              "display": "Bdy weight special circumstances"
            }
          ],
          "text": "Weight"
        },
        "subject": {
          "reference": "Patient/0f1ce01f-3abb-42d1-8f3f-f49efc6a973f"
        },
        "encounter": {
          "reference": "Encounter/065dc947-b4ab-4574-abf8-98bcf5253456"
        },
        "effectiveDateTime": "2025-10-16",
        "valueQuantity": {
          "value": 5.0,
          "unit": "pounds",
          "system": "http://unitsofmeasure.org",
          "code": "pounds"
        },
        "interpretation": [
          {
            "coding": [
              {
                "system": "http://terminology.hl7.org/CodeSystem/v3-ObservationInterpretation",
                "code": "L",
                "display": "Low"
              }
            ],
            "text": "Low"
          }
        ]
      },
      "request": {
        "method": "POST",
        "url": "Observation"
      }
    },
    {
      "fullUrl": "urn:uuid:f7b3dd2a-70b5-4edf-a6bf-ff9ff88761d5",
      "resource": {
        "resourceType": "MedicationStatement",
        "id": "f7b3dd2a-70b5-4edf-a6bf-ff9ff88761d5",
        "status": "recorded",
        "medication": {
          "concept": {
            "coding": [
              {
                "system": "http://snomed.info/sct",
                "code": "387517004",
                "display": "Acetaminophen"
              }
            ],
            "text": "Acetaminophen"
          }
        },
        "subject": {
          "reference": "Patient/0f1ce01f-3abb-42d1-8f3f-f49efc6a973f"
        },
        "encounter": {
          "reference": "Encounter/065dc947-b4ab-4574-abf8-98bcf5253456"
        },
        "effectiveDateTime": "2025-10-16",
        "informationSource": [
          {
            "reference": "Patient/0f1ce01f-3abb-42d1-8f3f-f49efc6a973f"
          }
        ],
        "dosage": [
          {
            "text": "650 milligrams every 4 hours as needed",
            "timing": {
              "repeat": {
                "frequency": 1,
                "period": 4.0
              }
            }
          }
        ]
      },
      "request": {
        "method": "POST",
        "url": "MedicationStatement"
      }
    },
    {
      "fullUrl": "urn:uuid:7ff29879-d107-41ea-94e2-fe8981654183",
      "resource": {
        "resourceType": "Encounter",
        "id": "7ff29879-d107-41ea-94e2-fe8981654183",
        "identifier": [
          {
            "use": "temp",
            "value": "Encounter_Sofia Rodriguez_20251021093824"
          }
        ],
        "status": "completed",
        "priority": {
          "coding": [
            {
              "system": "http://snomed.info/sct",
              "code": "17621005",
              "display": "Normal"
            }
          ]
        },
        "type": [
          {
            "coding": [
              {
                "system": "http://snomed.info/sct",
                "code": "11429006",
                "display": "Consultation"
              }
            ]
          }
        ],
        "subject": {
          "reference": "Patient/0f1ce01f-3abb-42d1-8f3f-f49efc6a973f",
          "display": "Sofia Rodriguez"
        },
        "reason": [
          {
            "value": [
              {
                "concept": {
                  "text": "viral upper respiratory tract infection"
                }
              }
            ]
          }
        ]
      },
      "request": {
        "method": "POST",
        "url": "Encounter"
      }
    },
    {
      "fullUrl": "urn:uuid:faea2aa5-0079-4e62-8253-4308dfd13cfc",
      "resource": {
        "resourceType": "List",
        "id": "faea2aa5-0079-4e62-8253-4308dfd13cfc",
        "contained": [
          {
            "resourceType": "FamilyMemberHistory",
            "id": "fmh-2",
            "status": "completed",
            "patient": {
              "reference": "Patient/0f1ce01f-3abb-42d1-8f3f-f49efc6a973f"
            },
            "relationship": {
              "coding": [
                {
                  "system": "http://snomed.info/sct",
                  "code": "85411004",
                  "display": "Younger brother"
                }
              ]
            },
            "deceasedBoolean": false,
            "condition": [
              {
                "code": {
                  "coding": [
                    {
                      "system": "http://snomed.info/sct",
                      "code": "312135004",
                      "display": "Viral cardiovascular infection"
                    }
                  ]
                },
                "outcome": {
                  "coding": [
                    {
                      "system": "http://snomed.info/sct",
                      "code": "440706004",
                      "display": "Full renal function recovered"
                    }
                  ]
                }
              }
            ]
          }
        ],
        "status": "current",
        "mode": "snapshot",
        "code": {
          "coding": [
            {
              "system": "http://loinc.org",
              "code": "8670-2",
              "display": "History of family member diseases"
            }
          ]
        },
        "subject": [
          {
            "reference": "Patient/0f1ce01f-3abb-42d1-8f3f-f49efc6a973f"
          }
        ],
        "entry": [
          {
            "item": {
              "reference": "#fmh-2"
            }
          }
        ]
      },
      "request": {
        "method": "POST",
        "url": "FamilyMemberHistory"
      }
    }
  ]
}