{
  "resourceType": "Bundle",
  "type": "transaction",
  "entry": [
    {
      "fullUrl": "urn:uuid:7c0a35a3-b5cc-49bf-9b7c-ce83eee02f73",
      "resource": {
        "resourceType": "Patient",
        "id": "7c0a35a3-b5cc-49bf-9b7c-ce83eee02f73",
        "name": [
          {
            "family": "Karpov",
            "given": [
              "Maxim"
            ]
          }
        ],
        "gender": "male",
        "birthDate": "2019-01-01",
        "address": [
          {}
        ]
      },
      "request": {
        "method": "POST",
        "url": "Patient"
      }
    },
    {
      "fullUrl": "urn:uuid:c25635d0-5955-4e0d-bd11-46e3548a58e1",
      "resource": {
        "resourceType": "Encounter",
        "id": "c25635d0-5955-4e0d-bd11-46e3548a58e1",
        "identifier": [
          {
            "use": "temp",
            "value": "Encounter_Maxim Karpov_20251020131744"
          }
        ],
        "status": "completed",
        "priority": {
          "coding": [
            {
              "system": "http://snomed.info/sct",
              "code": "17621005",
              "display": "Normal"
            }
          ]
        },
        "type": [
          {
            "coding": [
              {
                "system": "http://snomed.info/sct",
                "code": "11429006",
                "display": "Consultation"
              }
            ]
          }
        ],
        "subject": {
          "reference": "Patient/7c0a35a3-b5cc-49bf-9b7c-ce83eee02f73",
          "display": "Maxim Karpov"
        },
        "reason": [
          {
            "value": [
              {
                "concept": {
                  "text": "persistent fever, rash, and hepatosplenomegaly"
                }
              }
            ]
          }
        ]
      },
      "request": {
        "method": "POST",
        "url": "Encounter"
      }
    },
    {
      "fullUrl": "urn:uuid:749ae16b-af4e-4a17-b71c-d46d060995fd",
      "resource": {
        "resourceType": "Observation",
        "id": "749ae16b-af4e-4a17-b71c-d46d060995fd",
        "status": "final",
        "category": [
          {
            "coding": [
              {
                "system": "http://terminology.hl7.org/CodeSystem/observation-category",
                "code": "laboratory",
                "display": "Laboratory"
              }
            ],
            "text": "Laboratory"
          }
        ],
        "code": {
          "coding": [
            {
              "system": "http://loinc.org",
              "code": "53048-5",
              "display": "Ferritin Fld-mCnc"
            }
          ],
          "text": "Ferritin"
        },
        "subject": {
          "reference": "Patient/7c0a35a3-b5cc-49bf-9b7c-ce83eee02f73"
        },
        "encounter": {
          "reference": "Encounter/c25635d0-5955-4e0d-bd11-46e3548a58e1"
        },
        "effectiveDateTime": "2025-10-16",
        "valueQuantity": {
          "value": 6000.0,
          "unit": "ng/mL",
          "system": "http://unitsofmeasure.org",
          "code": "ng/mL"
        },
        "interpretation": [
          {
            "coding": [
              {
                "system": "http://terminology.hl7.org/CodeSystem/v3-ObservationInterpretation",
                "code": "H",
                "display": "High"
              }
            ]
          }
        ],
        "note": [
          {
            "text": "Definition: https://loinc.org/53048-5/"
          }
        ]
      },
      "request": {
        "method": "POST",
        "url": "Observation"
      }
    },
    {
      "fullUrl": "urn:uuid:cd8eaf6a-e062-469d-939c-f24a04f72705",
      "resource": {
        "resourceType": "Observation",
        "id": "cd8eaf6a-e062-469d-939c-f24a04f72705",
        "status": "final",
        "category": [
          {
            "coding": [
              {
                "system": "http://terminology.hl7.org/CodeSystem/observation-category",
                "code": "laboratory",
                "display": "Laboratory"
              }
            ],
            "text": "Laboratory"
          }
        ],
        "code": {
          "coding": [
            {
              "system": "http://loinc.org",
              "code": "2546-0",
              "display": "LDH4 SerPl-cCnc"
            }
          ],
          "text": "Lactate Dehydrogenase (LDH)"
        },
        "subject": {
          "reference": "Patient/7c0a35a3-b5cc-49bf-9b7c-ce83eee02f73"
        },
        "encounter": {
          "reference": "Encounter/c25635d0-5955-4e0d-bd11-46e3548a58e1"
        },
        "effectiveDateTime": "2025-10-16",
        "interpretation": [
          {
            "coding": [
              {
                "system": "http://terminology.hl7.org/CodeSystem/v3-ObservationInterpretation",
                "code": "H",
                "display": "High"
              }
            ]
          }
        ],
        "note": [
          {
            "text": "Definition: https://loinc.org/2546-0/"
          }
        ]
      },
      "request": {
        "method": "POST",
        "url": "Observation"
      }
    },
    {
      "fullUrl": "urn:uuid:cdd3db6d-77a3-4552-a3d4-c7d8e1a71ff8",
      "resource": {
        "resourceType": "Observation",
        "id": "cdd3db6d-77a3-4552-a3d4-c7d8e1a71ff8",
        "status": "final",
        "category": [
          {
            "coding": [
              {
                "system": "http://terminology.hl7.org/CodeSystem/observation-category",
                "code": "laboratory",
                "display": "Laboratory"
              }
            ],
            "text": "Laboratory"
          }
        ],
        "code": {
          "coding": [
            {
              "system": "http://loinc.org",
              "code": "93340-8",
              "display": "PhenX - complete blood count protocol 220501"
            }
          ],
          "text": "CBC"
        },
        "subject": {
          "reference": "Patient/7c0a35a3-b5cc-49bf-9b7c-ce83eee02f73"
        },
        "encounter": {
          "reference": "Encounter/c25635d0-5955-4e0d-bd11-46e3548a58e1"
        },
        "effectiveDateTime": "2025-10-16",
        "interpretation": [
          {
            "coding": [
              {
                "system": "http://terminology.hl7.org/CodeSystem/v3-ObservationInterpretation",
                "code": "A",
                "display": "Abnormal"
              }
            ]
          }
        ],
        "note": [
          {
            "text": "Definition: https://loinc.org/93340-8/"
          }
        ]
      },
      "request": {
        "method": "POST",
        "url": "Observation"
      }
    },
    {
      "fullUrl": "urn:uuid:534579f3-17b8-4f19-b2dd-6d71010343a6",
      "resource": {
        "resourceType": "Observation",
        "id": "534579f3-17b8-4f19-b2dd-6d71010343a6",
        "status": "final",
        "category": [
          {
            "coding": [
              {
                "system": "http://terminology.hl7.org/CodeSystem/observation-category",
                "code": "exam",
                "display": "Exam"
              }
            ],
            "text": "Exam"
          }
        ],
        "code": {
          "coding": [
            {
              "system": "http://snomed.info/sct",
              "code": "386661006",
              "display": "Fever"
            }
          ],
          "text": "Fever"
        },
        "subject": {
          "reference": "Patient/7c0a35a3-b5cc-49bf-9b7c-ce83eee02f73"
        },
        "encounter": {
          "reference": "Encounter/c25635d0-5955-4e0d-bd11-46e3548a58e1"
        },
        "effectivePeriod": {
          "start": "2025-10-16"
        },
        "valueBoolean": true,
        "note": [
          {
            "text": "Definition: https://snomed.info/id/386661006"
          }
        ]
      },
      "request": {
        "method": "POST",
        "url": "Observation"
      }
    },
    {
      "fullUrl": "urn:uuid:3a233553-3f8c-4fa5-ab4d-a81c33a056b5",
      "resource": {
        "resourceType": "Observation",
        "id": "3a233553-3f8c-4fa5-ab4d-a81c33a056b5",
        "status": "final",
        "category": [
          {
            "coding": [
              {
                "system": "http://terminology.hl7.org/CodeSystem/observation-category",
                "code": "exam",
                "display": "Exam"
              }
            ],
            "text": "Exam"
          }
        ],
        "code": {
          "coding": [
            {
              "system": "http://snomed.info/sct",
              "code": "89757007",
              "display": "Macular rash"
            }
          ],
          "text": "Rash"
        },
        "subject": {
          "reference": "Patient/7c0a35a3-b5cc-49bf-9b7c-ce83eee02f73"
        },
        "encounter": {
          "reference": "Encounter/c25635d0-5955-4e0d-bd11-46e3548a58e1"
        },
        "effectivePeriod": {
          "start": "2025-10-16"
        },
        "valueBoolean": true,
        "note": [
          {
            "text": "Definition: https://snomed.info/id/89757007"
          }
        ]
      },
      "request": {
        "method": "POST",
        "url": "Observation"
      }
    },
    {
      "fullUrl": "urn:uuid:2a117eed-36c0-4144-95e2-8ee2ffbab46d",
      "resource": {
        "resourceType": "Observation",
        "id": "2a117eed-36c0-4144-95e2-8ee2ffbab46d",
        "status": "final",
        "category": [
          {
            "coding": [
              {
                "system": "http://terminology.hl7.org/CodeSystem/observation-category",
                "code": "exam",
                "display": "Exam"
              }
            ],
            "text": "Exam"
          }
        ],
        "code": {
          "coding": [
            {
              "system": "http://snomed.info/sct",
              "code": "36760000",
              "display": "Hepatosplenomegaly"
            }
          ],
          "text": "Hepatosplenomegaly"
        },
        "subject": {
          "reference": "Patient/7c0a35a3-b5cc-49bf-9b7c-ce83eee02f73"
        },
        "encounter": {
          "reference": "Encounter/c25635d0-5955-4e0d-bd11-46e3548a58e1"
        },
        "effectivePeriod": {
          "start": "2025-10-16"
        },
        "valueBoolean": true,
        "note": [
          {
            "text": "Definition: https://snomed.info/id/36760000"
          }
        ]
      },
      "request": {
        "method": "POST",
        "url": "Observation"
      }
    },
    {
      "fullUrl": "urn:uuid:fc67b20e-af8e-45ac-9da0-1296deb402f9",
      "resource": {
        "resourceType": "Observation",
        "id": "fc67b20e-af8e-45ac-9da0-1296deb402f9",
        "status": "final",
        "category": [
          {
            "coding": [
              {
                "system": "http://terminology.hl7.org/CodeSystem/observation-category",
                "code": "exam",
                "display": "Exam"
              }
            ],
            "text": "Exam"
          }
        ],
        "code": {
          "coding": [
            {
              "system": "http://snomed.info/sct",
              "code": "95199009",
              "display": "Pallor of liver"
            }
          ],
          "text": "Pallor"
        },
        "subject": {
          "reference": "Patient/7c0a35a3-b5cc-49bf-9b7c-ce83eee02f73"
        },
        "encounter": {
          "reference": "Encounter/c25635d0-5955-4e0d-bd11-46e3548a58e1"
        },
        "effectivePeriod": {
          "start": "2025-10-16"
        },
        "valueBoolean": true,
        "note": [
          {
            "text": "Definition: https://snomed.info/id/95199009"
          }
        ]
      },
      "request": {
        "method": "POST",
        "url": "Observation"
      }
    },
    {
      "fullUrl": "urn:uuid:140172b0-a9fe-46d1-8fe5-6f76fce19ba5",
      "resource": {
        "resourceType": "Observation",
        "id": "140172b0-a9fe-46d1-8fe5-6f76fce19ba5",
        "status": "final",
        "category": [
          {
            "coding": [
              {
                "system": "http://terminology.hl7.org/CodeSystem/observation-category",
                "code": "exam",
                "display": "Exam"
              }
            ],
            "text": "Exam"
          }
        ],
        "code": {
          "coding": [
            {
              "system": "http://snomed.info/sct",
              "code": "214264003",
              "display": "Lethargy"
            }
          ],
          "text": "Lethargy"
        },
        "subject": {
          "reference": "Patient/7c0a35a3-b5cc-49bf-9b7c-ce83eee02f73"
        },
        "encounter": {
          "reference": "Encounter/c25635d0-5955-4e0d-bd11-46e3548a58e1"
        },
        "effectivePeriod": {
          "start": "2025-10-16"
        },
        "valueBoolean": true,
        "note": [
          {
            "text": "Definition: https://snomed.info/id/214264003"
          }
        ]
      },
      "request": {
        "method": "POST",
        "url": "Observation"
      }
    },
    {
      "fullUrl": "urn:uuid:1931d9b1-75e8-466a-860a-e6011ece1af1",
      "resource": {
        "resourceType": "List",
        "id": "1931d9b1-75e8-466a-860a-e6011ece1af1",
        "contained": [
          {
            "resourceType": "FamilyMemberHistory",
            "id": "fmh-1",
            "status": "completed",
            "patient": {
              "reference": "Patient/7c0a35a3-b5cc-49bf-9b7c-ce83eee02f73"
            },
            "relationship": {
              "coding": [
                {
                  "system": "http://snomed.info/sct",
                  "code": "55538000",
                  "display": "Cousin"
                }
              ]
            },
            "deceasedBoolean": true,
            "condition": [
              {
                "code": {
                  "coding": [
                    {
                      "system": "http://snomed.info/sct",
                      "code": "90049009",
                      "display": "Unexplained sudden death"
                    }
                  ]
                },
                "outcome": {
                  "coding": [
                    {
                      "system": "http://snomed.info/sct",
                      "code": "876883006",
                      "display": "Died during operation"
                    }
                  ]
                }
              }
            ]
          }
        ],
        "status": "current",
        "mode": "snapshot",
        "code": {
          "coding": [
            {
              "system": "http://loinc.org",
              "code": "8670-2",
              "display": "History of family member diseases"
            }
          ]
        },
        "subject": [
          {
            "reference": "Patient/7c0a35a3-b5cc-49bf-9b7c-ce83eee02f73"
          }
        ],
        "note": [
          {
            "text": "Unexplained deaths of two cousins in infancy"
          }
        ],
        "entry": [
          {
            "item": {
              "reference": "#fmh-1"
            }
          }
        ]
      },
      "request": {
        "method": "POST",
        "url": "FamilyMemberHistory"
      }
    }
  ]
}