{
  "resourceType": "Bundle",
  "type": "transaction",
  "entry": [
    {
      "fullUrl": "urn:uuid:13047e21-c3e2-4ebb-bd43-c801f30ead12",
      "resource": {
        "resourceType": "Patient",
        "id": "13047e21-c3e2-4ebb-bd43-c801f30ead12",
        "name": [
          {
            "family": "Ivanova",
            "given": [
              "Darya"
            ]
          }
        ],
        "gender": "female",
        "birthDate": "2022-01-01",
        "address": [
          {}
        ]
      },
      "request": {
        "method": "POST",
        "url": "Patient"
      }
    },
    {
      "fullUrl": "urn:uuid:f1e6bab2-1e5f-4ba3-9992-8cf267891f87",
      "resource": {
        "resourceType": "Encounter",
        "id": "f1e6bab2-1e5f-4ba3-9992-8cf267891f87",
        "identifier": [
          {
            "use": "temp",
            "value": "Encounter_Darya Ivanova_20251022152309"
          }
        ],
        "status": "completed",
        "priority": {
          "coding": [
            {
              "system": "http://snomed.info/sct",
              "code": "17621005",
              "display": "Normal"
            }
          ]
        },
        "type": [
          {
            "coding": [
              {
                "system": "http://snomed.info/sct",
                "code": "11429006",
                "display": "Consultation"
              }
            ]
          }
        ],
        "subject": {
          "reference": "Patient/13047e21-c3e2-4ebb-bd43-c801f30ead12",
          "display": "Darya Ivanova"
        },
        "reason": [
          {
            "value": [
              {
                "concept": {
                  "text": "fever, skin rash, and enlarged lymph nodes"
                }
              }
            ]
          }
        ]
      },
      "request": {
        "method": "POST",
        "url": "Encounter"
      }
    },
    {
      "fullUrl": "urn:uuid:8d1364bd-9fe8-43a2-8586-bd725433919c",
      "resource": {
        "resourceType": "Observation",
        "id": "8d1364bd-9fe8-43a2-8586-bd725433919c",
        "status": "final",
        "category": [
          {
            "coding": [
              {
                "system": "http://terminology.hl7.org/CodeSystem/observation-category",
                "code": "laboratory",
                "display": "Laboratory"
              }
            ],
            "text": "Laboratory"
          }
        ],
        "code": {
          "coding": [
            {
              "system": "http://loinc.org",
              "code": "53048-5",
              "display": "Ferritin Fld-mCnc"
            }
          ],
          "text": "Ferritin"
        },
        "subject": {
          "reference": "Patient/13047e21-c3e2-4ebb-bd43-c801f30ead12"
        },
        "encounter": {
          "reference": "Encounter/f1e6bab2-1e5f-4ba3-9992-8cf267891f87"
        },
        "effectiveDateTime": "2025-10-16",
        "valueQuantity": {
          "value": 4500.0,
          "unit": "ng/mL",
          "system": "http://unitsofmeasure.org",
          "code": "ng/mL"
        },
        "interpretation": [
          {
            "coding": [
              {
                "system": "http://terminology.hl7.org/CodeSystem/v3-ObservationInterpretation",
                "code": "H",
                "display": "High"
              }
            ]
          }
        ],
        "note": [
          {
            "text": "Definition: https://loinc.org/53048-5/"
          }
        ]
      },
      "request": {
        "method": "POST",
        "url": "Observation"
      }
    },
    {
      "fullUrl": "urn:uuid:3473c825-fbc0-4805-aa73-b0453981a210",
      "resource": {
        "resourceType": "Observation",
        "id": "3473c825-fbc0-4805-aa73-b0453981a210",
        "status": "final",
        "category": [
          {
            "coding": [
              {
                "system": "http://terminology.hl7.org/CodeSystem/observation-category",
                "code": "laboratory",
                "display": "Laboratory"
              }
            ],
            "text": "Laboratory"
          }
        ],
        "code": {
          "coding": [
            {
              "system": "http://loinc.org",
              "code": "unknown",
              "display": "Liver Enzymes"
            }
          ],
          "text": "Liver Enzymes"
        },
        "subject": {
          "reference": "Patient/13047e21-c3e2-4ebb-bd43-c801f30ead12"
        },
        "encounter": {
          "reference": "Encounter/f1e6bab2-1e5f-4ba3-9992-8cf267891f87"
        },
        "effectiveDateTime": "2025-10-16",
        "interpretation": [
          {
            "coding": [
              {
                "system": "http://terminology.hl7.org/CodeSystem/v3-ObservationInterpretation",
                "code": "H",
                "display": "High"
              }
            ]
          }
        ]
      },
      "request": {
        "method": "POST",
        "url": "Observation"
      }
    },
    {
      "fullUrl": "urn:uuid:76eef143-81a2-467d-ad17-cfe8140ac0c2",
      "resource": {
        "resourceType": "Observation",
        "id": "76eef143-81a2-467d-ad17-cfe8140ac0c2",
        "status": "final",
        "category": [
          {
            "coding": [
              {
                "system": "http://terminology.hl7.org/CodeSystem/observation-category",
                "code": "laboratory",
                "display": "Laboratory"
              }
            ],
            "text": "Laboratory"
          }
        ],
        "code": {
          "coding": [
            {
              "system": "http://loinc.org",
              "code": "110845-5",
              "display": "E canis Ab Msmt Ser"
            }
          ],
          "text": "Pancytopenia"
        },
        "subject": {
          "reference": "Patient/13047e21-c3e2-4ebb-bd43-c801f30ead12"
        },
        "encounter": {
          "reference": "Encounter/f1e6bab2-1e5f-4ba3-9992-8cf267891f87"
        },
        "effectiveDateTime": "2025-10-16",
        "interpretation": [
          {
            "coding": [
              {
                "system": "http://terminology.hl7.org/CodeSystem/v3-ObservationInterpretation",
                "code": "A",
                "display": "Abnormal"
              }
            ]
          }
        ],
        "note": [
          {
            "text": "Definition: https://loinc.org/110845-5/"
          }
        ]
      },
      "request": {
        "method": "POST",
        "url": "Observation"
      }
    },
    {
      "fullUrl": "urn:uuid:81a7c95a-d647-47de-8241-2bd86c5a6907",
      "resource": {
        "resourceType": "Observation",
        "id": "81a7c95a-d647-47de-8241-2bd86c5a6907",
        "status": "final",
        "category": [
          {
            "coding": [
              {
                "system": "http://terminology.hl7.org/CodeSystem/observation-category",
                "code": "exam",
                "display": "Exam"
              }
            ],
            "text": "Exam"
          }
        ],
        "code": {
          "coding": [
            {
              "system": "http://snomed.info/sct",
              "code": "386661006",
              "display": "Fever"
            }
          ],
          "text": "Fever"
        },
        "subject": {
          "reference": "Patient/13047e21-c3e2-4ebb-bd43-c801f30ead12"
        },
        "encounter": {
          "reference": "Encounter/f1e6bab2-1e5f-4ba3-9992-8cf267891f87"
        },
        "effectivePeriod": {
          "start": "2025-10-16"
        },
        "valueBoolean": true,
        "interpretation": [
          {
            "coding": [
              {
                "system": "http://terminology.hl7.org/CodeSystem/v3-ObservationInterpretation",
                "code": "H",
                "display": "High"
              }
            ],
            "text": "High"
          }
        ],
        "note": [
          {
            "text": "Definition: https://snomed.info/id/386661006"
          }
        ]
      },
      "request": {
        "method": "POST",
        "url": "Observation"
      }
    },
    {
      "fullUrl": "urn:uuid:9deacd06-27ef-4023-bec2-d7a0356c8aaf",
      "resource": {
        "resourceType": "Observation",
        "id": "9deacd06-27ef-4023-bec2-d7a0356c8aaf",
        "status": "final",
        "category": [
          {
            "coding": [
              {
                "system": "http://terminology.hl7.org/CodeSystem/observation-category",
                "code": "exam",
                "display": "Exam"
              }
            ],
            "text": "Exam"
          }
        ],
        "code": {
          "coding": [
            {
              "system": "http://snomed.info/sct",
              "code": "276719000",
              "display": "Phototherapy skin rash"
            }
          ],
          "text": "Skin Rash"
        },
        "subject": {
          "reference": "Patient/13047e21-c3e2-4ebb-bd43-c801f30ead12"
        },
        "encounter": {
          "reference": "Encounter/f1e6bab2-1e5f-4ba3-9992-8cf267891f87"
        },
        "effectivePeriod": {
          "start": "2025-10-16"
        },
        "valueBoolean": true,
        "note": [
          {
            "text": "Definition: https://snomed.info/id/276719000"
          }
        ]
      },
      "request": {
        "method": "POST",
        "url": "Observation"
      }
    },
    {
      "fullUrl": "urn:uuid:7e634f9a-8f24-4f4d-a643-9608f9422179",
      "resource": {
        "resourceType": "Observation",
        "id": "7e634f9a-8f24-4f4d-a643-9608f9422179",
        "status": "final",
        "category": [
          {
            "coding": [
              {
                "system": "http://terminology.hl7.org/CodeSystem/observation-category",
                "code": "exam",
                "display": "Exam"
              }
            ],
            "text": "Exam"
          }
        ],
        "code": {
          "coding": [
            {
              "system": "http://snomed.info/sct",
              "code": "274741002",
              "display": "Generalized enlarged lymph nodes"
            }
          ],
          "text": "Enlarged Lymph Nodes"
        },
        "subject": {
          "reference": "Patient/13047e21-c3e2-4ebb-bd43-c801f30ead12"
        },
        "encounter": {
          "reference": "Encounter/f1e6bab2-1e5f-4ba3-9992-8cf267891f87"
        },
        "effectivePeriod": {
          "start": "2025-10-16"
        },
        "valueBoolean": true,
        "note": [
          {
            "text": "Definition: https://snomed.info/id/274741002"
          }
        ]
      },
      "request": {
        "method": "POST",
        "url": "Observation"
      }
    },
    {
      "fullUrl": "urn:uuid:bb051cc8-d615-444f-936e-ece663c52123",
      "resource": {
        "resourceType": "Observation",
        "id": "bb051cc8-d615-444f-936e-ece663c52123",
        "status": "final",
        "category": [
          {
            "coding": [
              {
                "system": "http://terminology.hl7.org/CodeSystem/observation-category",
                "code": "exam",
                "display": "Exam"
              }
            ],
            "text": "Exam"
          }
        ],
        "code": {
          "coding": [
            {
              "system": "http://snomed.info/sct",
              "code": "816160009",
              "display": "Weight loss"
            }
          ],
          "text": "Weight Loss"
        },
        "subject": {
          "reference": "Patient/13047e21-c3e2-4ebb-bd43-c801f30ead12"
        },
        "encounter": {
          "reference": "Encounter/f1e6bab2-1e5f-4ba3-9992-8cf267891f87"
        },
        "effectivePeriod": {
          "start": "2025-10-16"
        },
        "valueBoolean": true,
        "note": [
          {
            "text": "Definition: https://snomed.info/id/816160009"
          }
        ]
      },
      "request": {
        "method": "POST",
        "url": "Observation"
      }
    },
    {
      "fullUrl": "urn:uuid:f65e08bb-a653-4185-b1d9-793aaf64ce70",
      "resource": {
        "resourceType": "Observation",
        "id": "f65e08bb-a653-4185-b1d9-793aaf64ce70",
        "status": "final",
        "category": [
          {
            "coding": [
              {
                "system": "http://terminology.hl7.org/CodeSystem/observation-category",
                "code": "exam",
                "display": "Exam"
              }
            ],
            "text": "Exam"
          }
        ],
        "code": {
          "coding": [
            {
              "system": "http://snomed.info/sct",
              "code": "214264003",
              "display": "Lethargy"
            }
          ],
          "text": "Lethargy"
        },
        "subject": {
          "reference": "Patient/13047e21-c3e2-4ebb-bd43-c801f30ead12"
        },
        "encounter": {
          "reference": "Encounter/f1e6bab2-1e5f-4ba3-9992-8cf267891f87"
        },
        "effectivePeriod": {
          "start": "2025-10-16"
        },
        "valueBoolean": true,
        "note": [
          {
            "text": "Definition: https://snomed.info/id/214264003"
          }
        ]
      },
      "request": {
        "method": "POST",
        "url": "Observation"
      }
    },
    {
      "fullUrl": "urn:uuid:7747ff51-673e-4e0a-9e39-f24477042e18",
      "resource": {
        "resourceType": "Observation",
        "id": "7747ff51-673e-4e0a-9e39-f24477042e18",
        "status": "final",
        "category": [
          {
            "coding": [
              {
                "system": "http://terminology.hl7.org/CodeSystem/observation-category",
                "code": "exam",
                "display": "Exam"
              }
            ],
            "text": "Exam"
          }
        ],
        "code": {
          "coding": [
            {
              "system": "http://snomed.info/sct",
              "code": "95199009",
              "display": "Pallor of liver"
            }
          ],
          "text": "Pallor"
        },
        "subject": {
          "reference": "Patient/13047e21-c3e2-4ebb-bd43-c801f30ead12"
        },
        "encounter": {
          "reference": "Encounter/f1e6bab2-1e5f-4ba3-9992-8cf267891f87"
        },
        "effectivePeriod": {
          "start": "2025-10-16"
        },
        "valueBoolean": true,
        "note": [
          {
            "text": "Definition: https://snomed.info/id/95199009"
          }
        ]
      },
      "request": {
        "method": "POST",
        "url": "Observation"
      }
    },
    {
      "fullUrl": "urn:uuid:cf380b4e-6d42-48ac-896a-b1e58adb020d",
      "resource": {
        "resourceType": "Observation",
        "id": "cf380b4e-6d42-48ac-896a-b1e58adb020d",
        "status": "final",
        "category": [
          {
            "coding": [
              {
                "system": "http://terminology.hl7.org/CodeSystem/observation-category",
                "code": "vital-signs",
                "display": "Vital Signs"
              }
            ],
            "text": "Vital Signs"
          }
        ],
        "code": {
          "coding": [
            {
              "system": "http://loinc.org",
              "code": "8310-5",
              "display": "Body temperature"
            }
          ],
          "text": "Body Temperature"
        },
        "subject": {
          "reference": "Patient/13047e21-c3e2-4ebb-bd43-c801f30ead12"
        },
        "encounter": {
          "reference": "Encounter/f1e6bab2-1e5f-4ba3-9992-8cf267891f87"
        },
        "effectiveDateTime": "2025-10-16",
        "valueQuantity": {
          "value": 38.9,
          "unit": "°C",
          "system": "http://unitsofmeasure.org",
          "code": "°C"
        },
        "interpretation": [
          {
            "coding": [
              {
                "system": "http://terminology.hl7.org/CodeSystem/v3-ObservationInterpretation",
                "code": "H",
                "display": "High"
              }
            ],
            "text": "High"
          }
        ]
      },
      "request": {
        "method": "POST",
        "url": "Observation"
      }
    },
    {
      "fullUrl": "urn:uuid:e68a3fa4-d79e-40fa-a1c8-9a970b462160",
      "resource": {
        "resourceType": "List",
        "id": "e68a3fa4-d79e-40fa-a1c8-9a970b462160",
        "contained": [
          {
            "resourceType": "FamilyMemberHistory",
            "id": "fmh-1",
            "status": "completed",
            "patient": {
              "reference": "Patient/13047e21-c3e2-4ebb-bd43-c801f30ead12"
            },
            "relationship": {
              "coding": [
                {
                  "system": "http://snomed.info/sct",
                  "code": "70924004",
                  "display": "Brother"
                }
              ]
            },
            "deceasedBoolean": true,
            "condition": [
              {
                "code": {
                  "coding": [
                    {
                      "system": "http://snomed.info/sct",
                      "code": "234437005",
                      "display": "Hemophagocytic lymphohistiocytosis"
                    }
                  ]
                },
                "outcome": {
                  "coding": [
                    {
                      "system": "http://snomed.info/sct",
                      "code": "876883006",
                      "display": "Died during operation"
                    }
                  ]
                }
              }
            ]
          }
        ],
        "status": "current",
        "mode": "snapshot",
        "code": {
          "coding": [
            {
              "system": "http://loinc.org",
              "code": "8670-2",
              "display": "History of family member diseases"
            }
          ]
        },
        "subject": [
          {
            "reference": "Patient/13047e21-c3e2-4ebb-bd43-c801f30ead12"
          }
        ],
        "entry": [
          {
            "item": {
              "reference": "#fmh-1"
            }
          }
        ]
      },
      "request": {
        "method": "POST",
        "url": "FamilyMemberHistory"
      }
    }
  ]
}