{
  "resourceType": "Bundle",
  "type": "transaction",
  "entry": [
    {
      "fullUrl": "urn:uuid:695feabc-a8ba-429d-8619-a946422a01b6",
      "resource": {
        "resourceType": "Patient",
        "id": "695feabc-a8ba-429d-8619-a946422a01b6",
        "name": [
          {
            "family": "Ivanova",
            "given": [
              "Darya"
            ]
          }
        ],
        "gender": "female",
        "birthDate": "2022-01-01",
        "address": [
          {}
        ]
      },
      "request": {
        "method": "POST",
        "url": "Patient"
      }
    },
    {
      "fullUrl": "urn:uuid:0db966a4-e2c8-4d58-b06a-dd7e1e8d11ae",
      "resource": {
        "resourceType": "Encounter",
        "id": "0db966a4-e2c8-4d58-b06a-dd7e1e8d11ae",
        "identifier": [
          {
            "use": "temp",
            "value": "Encounter_Darya Ivanova_20251020131805"
          }
        ],
        "status": "completed",
        "priority": {
          "coding": [
            {
              "system": "http://snomed.info/sct",
              "code": "17621005",
              "display": "Normal"
            }
          ]
        },
        "type": [
          {
            "coding": [
              {
                "system": "http://snomed.info/sct",
                "code": "11429006",
                "display": "Consultation"
              }
            ]
          }
        ],
        "subject": {
          "reference": "Patient/695feabc-a8ba-429d-8619-a946422a01b6",
          "display": "Darya Ivanova"
        },
        "reason": [
          {
            "value": [
              {
                "concept": {
                  "text": "fever, skin rash, and enlarged lymph nodes"
                }
              }
            ]
          }
        ]
      },
      "request": {
        "method": "POST",
        "url": "Encounter"
      }
    },
    {
      "fullUrl": "urn:uuid:faff8373-178f-4916-b6de-16c2c899e979",
      "resource": {
        "resourceType": "Observation",
        "id": "faff8373-178f-4916-b6de-16c2c899e979",
        "status": "final",
        "category": [
          {
            "coding": [
              {
                "system": "http://terminology.hl7.org/CodeSystem/observation-category",
                "code": "laboratory",
                "display": "Laboratory"
              }
            ],
            "text": "Laboratory"
          }
        ],
        "code": {
          "coding": [
            {
              "system": "http://loinc.org",
              "code": "53048-5",
              "display": "Ferritin Fld-mCnc"
            }
          ],
          "text": "Ferritin"
        },
        "subject": {
          "reference": "Patient/695feabc-a8ba-429d-8619-a946422a01b6"
        },
        "encounter": {
          "reference": "Encounter/0db966a4-e2c8-4d58-b06a-dd7e1e8d11ae"
        },
        "effectiveDateTime": "2025-10-16",
        "valueQuantity": {
          "value": 4500.0,
          "unit": "ng/mL",
          "system": "http://unitsofmeasure.org",
          "code": "ng/mL"
        },
        "interpretation": [
          {
            "coding": [
              {
                "system": "http://terminology.hl7.org/CodeSystem/v3-ObservationInterpretation",
                "code": "H",
                "display": "High"
              }
            ]
          }
        ],
        "note": [
          {
            "text": "Definition: https://loinc.org/53048-5/"
          }
        ]
      },
      "request": {
        "method": "POST",
        "url": "Observation"
      }
    },
    {
      "fullUrl": "urn:uuid:dd4711f0-5b93-4c1b-92ab-9e7534284f9a",
      "resource": {
        "resourceType": "Observation",
        "id": "dd4711f0-5b93-4c1b-92ab-9e7534284f9a",
        "status": "final",
        "category": [
          {
            "coding": [
              {
                "system": "http://terminology.hl7.org/CodeSystem/observation-category",
                "code": "laboratory",
                "display": "Laboratory"
              }
            ],
            "text": "Laboratory"
          }
        ],
        "code": {
          "coding": [
            {
              "system": "http://loinc.org",
              "code": "unknown",
              "display": "Liver Enzymes"
            }
          ],
          "text": "Liver Enzymes"
        },
        "subject": {
          "reference": "Patient/695feabc-a8ba-429d-8619-a946422a01b6"
        },
        "encounter": {
          "reference": "Encounter/0db966a4-e2c8-4d58-b06a-dd7e1e8d11ae"
        },
        "effectiveDateTime": "2025-10-16",
        "interpretation": [
          {
            "coding": [
              {
                "system": "http://terminology.hl7.org/CodeSystem/v3-ObservationInterpretation",
                "code": "H",
                "display": "High"
              }
            ]
          }
        ]
      },
      "request": {
        "method": "POST",
        "url": "Observation"
      }
    },
    {
      "fullUrl": "urn:uuid:5bb4a4b9-1cf6-4102-80e9-1ace2cd6afea",
      "resource": {
        "resourceType": "Observation",
        "id": "5bb4a4b9-1cf6-4102-80e9-1ace2cd6afea",
        "status": "final",
        "category": [
          {
            "coding": [
              {
                "system": "http://terminology.hl7.org/CodeSystem/observation-category",
                "code": "laboratory",
                "display": "Laboratory"
              }
            ],
            "text": "Laboratory"
          }
        ],
        "code": {
          "coding": [
            {
              "system": "http://loinc.org",
              "code": "110845-5",
              "display": "E canis Ab Msmt Ser"
            }
          ],
          "text": "Pancytopenia"
        },
        "subject": {
          "reference": "Patient/695feabc-a8ba-429d-8619-a946422a01b6"
        },
        "encounter": {
          "reference": "Encounter/0db966a4-e2c8-4d58-b06a-dd7e1e8d11ae"
        },
        "effectiveDateTime": "2025-10-16",
        "interpretation": [
          {
            "coding": [
              {
                "system": "http://terminology.hl7.org/CodeSystem/v3-ObservationInterpretation",
                "code": "A",
                "display": "Abnormal"
              }
            ]
          }
        ],
        "note": [
          {
            "text": "Definition: https://loinc.org/110845-5/"
          }
        ]
      },
      "request": {
        "method": "POST",
        "url": "Observation"
      }
    },
    {
      "fullUrl": "urn:uuid:9483dcc8-1dcf-407c-8ff0-6ac1206cd68e",
      "resource": {
        "resourceType": "Observation",
        "id": "9483dcc8-1dcf-407c-8ff0-6ac1206cd68e",
        "status": "final",
        "category": [
          {
            "coding": [
              {
                "system": "http://terminology.hl7.org/CodeSystem/observation-category",
                "code": "exam",
                "display": "Exam"
              }
            ],
            "text": "Exam"
          }
        ],
        "code": {
          "coding": [
            {
              "system": "http://snomed.info/sct",
              "code": "386661006",
              "display": "Fever"
            }
          ],
          "text": "Fever"
        },
        "subject": {
          "reference": "Patient/695feabc-a8ba-429d-8619-a946422a01b6"
        },
        "encounter": {
          "reference": "Encounter/0db966a4-e2c8-4d58-b06a-dd7e1e8d11ae"
        },
        "effectivePeriod": {
          "start": "2025-10-16"
        },
        "valueBoolean": true,
        "interpretation": [
          {
            "coding": [
              {
                "system": "http://terminology.hl7.org/CodeSystem/v3-ObservationInterpretation",
                "code": "H",
                "display": "High"
              }
            ],
            "text": "High"
          }
        ],
        "note": [
          {
            "text": "Definition: https://snomed.info/id/386661006"
          }
        ]
      },
      "request": {
        "method": "POST",
        "url": "Observation"
      }
    },
    {
      "fullUrl": "urn:uuid:c4623f42-1a74-429c-a931-846571a7c2dc",
      "resource": {
        "resourceType": "Observation",
        "id": "c4623f42-1a74-429c-a931-846571a7c2dc",
        "status": "final",
        "category": [
          {
            "coding": [
              {
                "system": "http://terminology.hl7.org/CodeSystem/observation-category",
                "code": "exam",
                "display": "Exam"
              }
            ],
            "text": "Exam"
          }
        ],
        "code": {
          "coding": [
            {
              "system": "http://snomed.info/sct",
              "code": "276719000",
              "display": "Phototherapy skin rash"
            }
          ],
          "text": "Skin Rash"
        },
        "subject": {
          "reference": "Patient/695feabc-a8ba-429d-8619-a946422a01b6"
        },
        "encounter": {
          "reference": "Encounter/0db966a4-e2c8-4d58-b06a-dd7e1e8d11ae"
        },
        "effectivePeriod": {
          "start": "2025-10-16"
        },
        "valueBoolean": true,
        "note": [
          {
            "text": "Definition: https://snomed.info/id/276719000"
          }
        ]
      },
      "request": {
        "method": "POST",
        "url": "Observation"
      }
    },
    {
      "fullUrl": "urn:uuid:a2990549-68ff-40fc-93d5-202e4e42a477",
      "resource": {
        "resourceType": "Observation",
        "id": "a2990549-68ff-40fc-93d5-202e4e42a477",
        "status": "final",
        "category": [
          {
            "coding": [
              {
                "system": "http://terminology.hl7.org/CodeSystem/observation-category",
                "code": "exam",
                "display": "Exam"
              }
            ],
            "text": "Exam"
          }
        ],
        "code": {
          "coding": [
            {
              "system": "http://snomed.info/sct",
              "code": "274741002",
              "display": "Generalized enlarged lymph nodes"
            }
          ],
          "text": "Enlarged Lymph Nodes"
        },
        "subject": {
          "reference": "Patient/695feabc-a8ba-429d-8619-a946422a01b6"
        },
        "encounter": {
          "reference": "Encounter/0db966a4-e2c8-4d58-b06a-dd7e1e8d11ae"
        },
        "effectivePeriod": {
          "start": "2025-10-16"
        },
        "valueBoolean": true,
        "note": [
          {
            "text": "Definition: https://snomed.info/id/274741002"
          }
        ]
      },
      "request": {
        "method": "POST",
        "url": "Observation"
      }
    },
    {
      "fullUrl": "urn:uuid:501d485b-5a40-48e0-a618-d3e7ab6f90ae",
      "resource": {
        "resourceType": "Observation",
        "id": "501d485b-5a40-48e0-a618-d3e7ab6f90ae",
        "status": "final",
        "category": [
          {
            "coding": [
              {
                "system": "http://terminology.hl7.org/CodeSystem/observation-category",
                "code": "exam",
                "display": "Exam"
              }
            ],
            "text": "Exam"
          }
        ],
        "code": {
          "coding": [
            {
              "system": "http://snomed.info/sct",
              "code": "816160009",
              "display": "Weight loss"
            }
          ],
          "text": "Weight Loss"
        },
        "subject": {
          "reference": "Patient/695feabc-a8ba-429d-8619-a946422a01b6"
        },
        "encounter": {
          "reference": "Encounter/0db966a4-e2c8-4d58-b06a-dd7e1e8d11ae"
        },
        "effectivePeriod": {
          "start": "2025-10-16"
        },
        "valueBoolean": true,
        "note": [
          {
            "text": "Definition: https://snomed.info/id/816160009"
          }
        ]
      },
      "request": {
        "method": "POST",
        "url": "Observation"
      }
    },
    {
      "fullUrl": "urn:uuid:d410c447-f4b4-4ce1-85c8-39f8fe5eccf1",
      "resource": {
        "resourceType": "Observation",
        "id": "d410c447-f4b4-4ce1-85c8-39f8fe5eccf1",
        "status": "final",
        "category": [
          {
            "coding": [
              {
                "system": "http://terminology.hl7.org/CodeSystem/observation-category",
                "code": "exam",
                "display": "Exam"
              }
            ],
            "text": "Exam"
          }
        ],
        "code": {
          "coding": [
            {
              "system": "http://snomed.info/sct",
              "code": "214264003",
              "display": "Lethargy"
            }
          ],
          "text": "Lethargy"
        },
        "subject": {
          "reference": "Patient/695feabc-a8ba-429d-8619-a946422a01b6"
        },
        "encounter": {
          "reference": "Encounter/0db966a4-e2c8-4d58-b06a-dd7e1e8d11ae"
        },
        "effectivePeriod": {
          "start": "2025-10-16"
        },
        "valueBoolean": true,
        "note": [
          {
            "text": "Definition: https://snomed.info/id/214264003"
          }
        ]
      },
      "request": {
        "method": "POST",
        "url": "Observation"
      }
    },
    {
      "fullUrl": "urn:uuid:31550bf0-d0ae-4b9a-a7b6-5698d4224d66",
      "resource": {
        "resourceType": "Observation",
        "id": "31550bf0-d0ae-4b9a-a7b6-5698d4224d66",
        "status": "final",
        "category": [
          {
            "coding": [
              {
                "system": "http://terminology.hl7.org/CodeSystem/observation-category",
                "code": "vital-signs",
                "display": "Vital Signs"
              }
            ],
            "text": "Vital Signs"
          }
        ],
        "code": {
          "coding": [
            {
              "system": "http://loinc.org",
              "code": "8310-5",
              "display": "Body temperature"
            }
          ],
          "text": "Body Temperature"
        },
        "subject": {
          "reference": "Patient/695feabc-a8ba-429d-8619-a946422a01b6"
        },
        "encounter": {
          "reference": "Encounter/0db966a4-e2c8-4d58-b06a-dd7e1e8d11ae"
        },
        "effectiveDateTime": "2025-10-16",
        "valueQuantity": {
          "value": 38.9,
          "unit": "°C",
          "system": "http://unitsofmeasure.org",
          "code": "°C"
        },
        "interpretation": [
          {
            "coding": [
              {
                "system": "http://terminology.hl7.org/CodeSystem/v3-ObservationInterpretation",
                "code": "H",
                "display": "High"
              }
            ],
            "text": "High"
          }
        ]
      },
      "request": {
        "method": "POST",
        "url": "Observation"
      }
    },
    {
      "fullUrl": "urn:uuid:7d8f0029-66d4-4dd2-98e5-d8cf2d4162cc",
      "resource": {
        "resourceType": "List",
        "id": "7d8f0029-66d4-4dd2-98e5-d8cf2d4162cc",
        "contained": [
          {
            "resourceType": "FamilyMemberHistory",
            "id": "fmh-1",
            "status": "completed",
            "patient": {
              "reference": "Patient/695feabc-a8ba-429d-8619-a946422a01b6"
            },
            "relationship": {
              "coding": [
                {
                  "system": "http://snomed.info/sct",
                  "code": "70924004",
                  "display": "Brother"
                }
              ]
            },
            "deceasedBoolean": true,
            "condition": [
              {
                "code": {
                  "coding": [
                    {
                      "system": "http://snomed.info/sct",
                      "code": "234437005",
                      "display": "Hemophagocytic lymphohistiocytosis"
                    }
                  ]
                },
                "outcome": {
                  "coding": [
                    {
                      "system": "http://snomed.info/sct",
                      "code": "876883006",
                      "display": "Died during operation"
                    }
                  ]
                }
              }
            ]
          }
        ],
        "status": "current",
        "mode": "snapshot",
        "code": {
          "coding": [
            {
              "system": "http://loinc.org",
              "code": "8670-2",
              "display": "History of family member diseases"
            }
          ]
        },
        "subject": [
          {
            "reference": "Patient/695feabc-a8ba-429d-8619-a946422a01b6"
          }
        ],
        "entry": [
          {
            "item": {
              "reference": "#fmh-1"
            }
          }
        ]
      },
      "request": {
        "method": "POST",
        "url": "FamilyMemberHistory"
      }
    }
  ]
}