{
  "resourceType": "Bundle",
  "type": "transaction",
  "entry": [
    {
      "fullUrl": "urn:uuid:dac6eaab-ed87-4c58-a17d-b6ee28264780",
      "resource": {
        "resourceType": "Patient",
        "id": "dac6eaab-ed87-4c58-a17d-b6ee28264780",
        "name": [
          {
            "family": "Orlov",
            "given": [
              "Kirill"
            ]
          }
        ],
        "gender": "male",
        "birthDate": "2010-07-12",
        "address": [
          {}
        ]
      },
      "request": {
        "method": "POST",
        "url": "Patient"
      }
    },
    {
      "fullUrl": "urn:uuid:b96b8e18-b868-4265-b2a8-ab6c0ba25f6d",
      "resource": {
        "resourceType": "Encounter",
        "id": "b96b8e18-b868-4265-b2a8-ab6c0ba25f6d",
        "identifier": [
          {
            "use": "temp",
            "value": "Encounter_Kirill Orlov_20251020131823"
          }
        ],
        "status": "completed",
        "priority": {
          "coding": [
            {
              "system": "http://snomed.info/sct",
              "code": "17621005",
              "display": "Normal"
            }
          ]
        },
        "type": [
          {
            "coding": [
              {
                "system": "http://snomed.info/sct",
                "code": "11429006",
                "display": "Consultation"
              }
            ]
          }
        ],
        "subject": {
          "reference": "Patient/dac6eaab-ed87-4c58-a17d-b6ee28264780",
          "display": "Kirill Orlov"
        },
        "reason": [
          {
            "value": [
              {
                "concept": {
                  "text": "developmental delay, mild learning difficulties, increase in height"
                }
              }
            ]
          }
        ]
      },
      "request": {
        "method": "POST",
        "url": "Encounter"
      }
    },
    {
      "fullUrl": "urn:uuid:b8b168ea-cba3-4105-ba59-644c704ed8c3",
      "resource": {
        "resourceType": "Observation",
        "id": "b8b168ea-cba3-4105-ba59-644c704ed8c3",
        "status": "final",
        "category": [
          {
            "coding": [
              {
                "system": "http://terminology.hl7.org/CodeSystem/observation-category",
                "code": "laboratory",
                "display": "Laboratory"
              }
            ],
            "text": "Laboratory"
          }
        ],
        "code": {
          "coding": [
            {
              "system": "http://loinc.org",
              "code": "54302-5",
              "display": "(Hcys)2 DBS-sCnc"
            }
          ],
          "text": "Blood homocysteine level"
        },
        "subject": {
          "reference": "Patient/dac6eaab-ed87-4c58-a17d-b6ee28264780"
        },
        "encounter": {
          "reference": "Encounter/b96b8e18-b868-4265-b2a8-ab6c0ba25f6d"
        },
        "effectiveDateTime": "2025-10-16",
        "interpretation": [
          {
            "coding": [
              {
                "system": "http://terminology.hl7.org/CodeSystem/v3-ObservationInterpretation",
                "code": "A",
                "display": "Abnormal"
              }
            ]
          }
        ],
        "note": [
          {
            "text": "Definition: https://loinc.org/54302-5/"
          }
        ]
      },
      "request": {
        "method": "POST",
        "url": "Observation"
      }
    },
    {
      "fullUrl": "urn:uuid:7df11474-b437-4b52-93d8-14ef3e1bf76b",
      "resource": {
        "resourceType": "Observation",
        "id": "7df11474-b437-4b52-93d8-14ef3e1bf76b",
        "status": "final",
        "category": [
          {
            "coding": [
              {
                "system": "http://terminology.hl7.org/CodeSystem/observation-category",
                "code": "laboratory",
                "display": "Laboratory"
              }
            ],
            "text": "Laboratory"
          }
        ],
        "code": {
          "coding": [
            {
              "system": "http://loinc.org",
              "code": "2431-5",
              "display": "(Hcys)2 Ur-mCnc"
            }
          ],
          "text": "Urine homocystine level"
        },
        "subject": {
          "reference": "Patient/dac6eaab-ed87-4c58-a17d-b6ee28264780"
        },
        "encounter": {
          "reference": "Encounter/b96b8e18-b868-4265-b2a8-ab6c0ba25f6d"
        },
        "effectiveDateTime": "2025-10-16",
        "interpretation": [
          {
            "coding": [
              {
                "system": "http://terminology.hl7.org/CodeSystem/v3-ObservationInterpretation",
                "code": "A",
                "display": "Abnormal"
              }
            ]
          }
        ],
        "note": [
          {
            "text": "Definition: https://loinc.org/2431-5/"
          }
        ]
      },
      "request": {
        "method": "POST",
        "url": "Observation"
      }
    },
    {
      "fullUrl": "urn:uuid:003b73ce-33e9-4d4a-b303-7502d7d08d2d",
      "resource": {
        "resourceType": "Observation",
        "id": "003b73ce-33e9-4d4a-b303-7502d7d08d2d",
        "status": "final",
        "category": [
          {
            "coding": [
              {
                "system": "http://terminology.hl7.org/CodeSystem/observation-category",
                "code": "exam",
                "display": "Exam"
              }
            ],
            "text": "Exam"
          }
        ],
        "code": {
          "coding": [
            {
              "system": "http://snomed.info/sct",
              "code": "7006003",
              "display": "Clumsiness"
            }
          ],
          "text": "Clumsiness"
        },
        "subject": {
          "reference": "Patient/dac6eaab-ed87-4c58-a17d-b6ee28264780"
        },
        "encounter": {
          "reference": "Encounter/b96b8e18-b868-4265-b2a8-ab6c0ba25f6d"
        },
        "effectivePeriod": {
          "start": "2025-10-16"
        },
        "valueBoolean": true,
        "note": [
          {
            "text": "Definition: https://snomed.info/id/7006003"
          }
        ]
      },
      "request": {
        "method": "POST",
        "url": "Observation"
      }
    },
    {
      "fullUrl": "urn:uuid:4dd5eac2-9cf5-46b3-ab50-303df0537343",
      "resource": {
        "resourceType": "Observation",
        "id": "4dd5eac2-9cf5-46b3-ab50-303df0537343",
        "status": "final",
        "category": [
          {
            "coding": [
              {
                "system": "http://terminology.hl7.org/CodeSystem/observation-category",
                "code": "exam",
                "display": "Exam"
              }
            ],
            "text": "Exam"
          }
        ],
        "code": {
          "coding": [
            {
              "system": "http://snomed.info/sct"
            }
          ],
          "text": "Hyperflexibility"
        },
        "subject": {
          "reference": "Patient/dac6eaab-ed87-4c58-a17d-b6ee28264780"
        },
        "encounter": {
          "reference": "Encounter/b96b8e18-b868-4265-b2a8-ab6c0ba25f6d"
        },
        "effectivePeriod": {
          "start": "2025-10-16"
        },
        "valueBoolean": true,
        "note": [
          {
            "text": "Definition: https://snomed.info/id/None"
          }
        ]
      },
      "request": {
        "method": "POST",
        "url": "Observation"
      }
    },
    {
      "fullUrl": "urn:uuid:149655f6-b5ea-4a9b-bb95-8a104d38ac58",
      "resource": {
        "resourceType": "List",
        "id": "149655f6-b5ea-4a9b-bb95-8a104d38ac58",
        "contained": [
          {
            "resourceType": "FamilyMemberHistory",
            "id": "fmh-1",
            "status": "completed",
            "patient": {
              "reference": "Patient/dac6eaab-ed87-4c58-a17d-b6ee28264780"
            },
            "relationship": {
              "coding": [
                {
                  "system": "http://snomed.info/sct",
                  "code": "719759007",
                  "display": "Maternal cousin"
                }
              ]
            },
            "deceasedBoolean": false,
            "condition": [
              {
                "code": {
                  "coding": [
                    {
                      "system": "http://snomed.info/sct",
                      "code": "770751003",
                      "display": "Severe motor and intellectual disabilities, sensorineural deafness, dystonia syndrome"
                    }
                  ]
                }
              },
              {
                "code": {
                  "coding": [
                    {
                      "system": "http://snomed.info/sct",
                      "code": "449211000124105",
                      "display": "Blood clots in stool"
                    }
                  ]
                }
              }
            ]
          }
        ],
        "status": "current",
        "mode": "snapshot",
        "code": {
          "coding": [
            {
              "system": "http://loinc.org",
              "code": "8670-2",
              "display": "History of family member diseases"
            }
          ]
        },
        "subject": [
          {
            "reference": "Patient/dac6eaab-ed87-4c58-a17d-b6ee28264780"
          }
        ],
        "entry": [
          {
            "item": {
              "reference": "#fmh-1"
            }
          }
        ]
      },
      "request": {
        "method": "POST",
        "url": "FamilyMemberHistory"
      }
    }
  ]
}