{
  "resourceType": "Bundle",
  "type": "transaction",
  "entry": [
    {
      "fullUrl": "urn:uuid:ccebe06a-c3cb-48f7-929a-9781ec651419",
      "resource": {
        "resourceType": "Patient",
        "id": "ccebe06a-c3cb-48f7-929a-9781ec651419",
        "name": [
          {
            "family": "M.",
            "given": [
              "Peter"
            ]
          }
        ],
        "gender": "male",
        "address": [
          {}
        ]
      },
      "request": {
        "method": "POST",
        "url": "Patient"
      }
    },
    {
      "fullUrl": "urn:uuid:eae90e3e-3e04-48e6-a12b-5f266f02dec6",
      "resource": {
        "resourceType": "Encounter",
        "id": "eae90e3e-3e04-48e6-a12b-5f266f02dec6",
        "identifier": [
          {
            "use": "temp",
            "value": "Encounter_Peter M._20251017122258"
          }
        ],
        "status": "completed",
        "priority": {
          "coding": [
            {
              "system": "http://snomed.info/sct",
              "code": "17621005",
              "display": "Normal"
            }
          ]
        },
        "type": [
          {
            "coding": [
              {
                "system": "http://snomed.info/sct",
                "code": "11429006",
                "display": "Consultation"
              }
            ]
          }
        ],
        "subject": {
          "reference": "Patient/ccebe06a-c3cb-48f7-929a-9781ec651419",
          "display": "Peter M."
        },
        "reason": [
          {
            "value": [
              {
                "concept": {
                  "text": "myopia worsening over two years"
                }
              }
            ]
          }
        ]
      },
      "request": {
        "method": "POST",
        "url": "Encounter"
      }
    },
    {
      "fullUrl": "urn:uuid:74b4ed6e-ce8a-4194-bfb6-344a90d3b251",
      "resource": {
        "resourceType": "Observation",
        "id": "74b4ed6e-ce8a-4194-bfb6-344a90d3b251",
        "status": "final",
        "category": [
          {
            "coding": [
              {
                "system": "http://terminology.hl7.org/CodeSystem/observation-category",
                "code": "laboratory",
                "display": "Laboratory"
              }
            ],
            "text": "Laboratory"
          }
        ],
        "code": {
          "coding": [
            {
              "system": "http://loinc.org",
              "code": "32615-7",
              "display": "Hycs-Cys diS SerPl-sCnc"
            }
          ],
          "text": "Plasma homocysteine"
        },
        "subject": {
          "reference": "Patient/ccebe06a-c3cb-48f7-929a-9781ec651419"
        },
        "encounter": {
          "reference": "Encounter/eae90e3e-3e04-48e6-a12b-5f266f02dec6"
        },
        "effectiveDateTime": "2025-10-17T10:22:58.677252Z",
        "valueQuantity": {
          "value": 120.0,
          "unit": "µmol/L",
          "system": "http://unitsofmeasure.org",
          "code": "µmol/L"
        },
        "interpretation": [
          {
            "coding": [
              {
                "system": "http://terminology.hl7.org/CodeSystem/v3-ObservationInterpretation",
                "code": "H",
                "display": "High"
              }
            ]
          }
        ],
        "note": [
          {
            "text": "Definition: https://loinc.org/32615-7/"
          }
        ]
      },
      "request": {
        "method": "POST",
        "url": "Observation"
      }
    },
    {
      "fullUrl": "urn:uuid:905f2ebd-1707-4167-a4e1-66093d2a325b",
      "resource": {
        "resourceType": "Observation",
        "id": "905f2ebd-1707-4167-a4e1-66093d2a325b",
        "status": "final",
        "category": [
          {
            "coding": [
              {
                "system": "http://terminology.hl7.org/CodeSystem/observation-category",
                "code": "laboratory",
                "display": "Laboratory"
              }
            ],
            "text": "Laboratory"
          }
        ],
        "code": {
          "coding": [
            {
              "system": "http://loinc.org",
              "code": "2623-7",
              "display": "Methionine Ur-mCnc"
            }
          ],
          "text": "Methionine"
        },
        "subject": {
          "reference": "Patient/ccebe06a-c3cb-48f7-929a-9781ec651419"
        },
        "encounter": {
          "reference": "Encounter/eae90e3e-3e04-48e6-a12b-5f266f02dec6"
        },
        "effectiveDateTime": "2025-10-17T10:22:58.856331Z",
        "interpretation": [
          {
            "coding": [
              {
                "system": "http://terminology.hl7.org/CodeSystem/v3-ObservationInterpretation",
                "code": "H",
                "display": "High"
              }
            ]
          }
        ],
        "note": [
          {
            "text": "Definition: https://loinc.org/2623-7/"
          }
        ]
      },
      "request": {
        "method": "POST",
        "url": "Observation"
      }
    },
    {
      "fullUrl": "urn:uuid:fea1d13b-7291-41cf-8a06-e3b9cd49125f",
      "resource": {
        "resourceType": "Observation",
        "id": "fea1d13b-7291-41cf-8a06-e3b9cd49125f",
        "status": "final",
        "category": [
          {
            "coding": [
              {
                "system": "http://terminology.hl7.org/CodeSystem/observation-category",
                "code": "laboratory",
                "display": "Laboratory"
              }
            ],
            "text": "Laboratory"
          }
        ],
        "code": {
          "coding": [
            {
              "system": "http://loinc.org",
              "code": "55885-8",
              "display": "Vit B12b Ur-mCnc"
            }
          ],
          "text": "Vitamin B12"
        },
        "subject": {
          "reference": "Patient/ccebe06a-c3cb-48f7-929a-9781ec651419"
        },
        "encounter": {
          "reference": "Encounter/eae90e3e-3e04-48e6-a12b-5f266f02dec6"
        },
        "effectiveDateTime": "2025-10-17T10:22:59.061833Z",
        "interpretation": [
          {
            "coding": [
              {
                "system": "http://terminology.hl7.org/CodeSystem/v3-ObservationInterpretation",
                "code": "N",
                "display": "Normal"
              }
            ]
          }
        ],
        "note": [
          {
            "text": "Definition: https://loinc.org/55885-8/"
          }
        ]
      },
      "request": {
        "method": "POST",
        "url": "Observation"
      }
    },
    {
      "fullUrl": "urn:uuid:6d14db01-2da6-4f24-83bb-0b5c5cf13129",
      "resource": {
        "resourceType": "Observation",
        "id": "6d14db01-2da6-4f24-83bb-0b5c5cf13129",
        "status": "final",
        "category": [
          {
            "coding": [
              {
                "system": "http://terminology.hl7.org/CodeSystem/observation-category",
                "code": "laboratory",
                "display": "Laboratory"
              }
            ],
            "text": "Laboratory"
          }
        ],
        "code": {
          "coding": [
            {
              "system": "http://loinc.org",
              "code": "2282-2",
              "display": "Folate Bld-mCnc"
            }
          ],
          "text": "Folate"
        },
        "subject": {
          "reference": "Patient/ccebe06a-c3cb-48f7-929a-9781ec651419"
        },
        "encounter": {
          "reference": "Encounter/eae90e3e-3e04-48e6-a12b-5f266f02dec6"
        },
        "effectiveDateTime": "2025-10-17T10:22:59.266328Z",
        "interpretation": [
          {
            "coding": [
              {
                "system": "http://terminology.hl7.org/CodeSystem/v3-ObservationInterpretation",
                "code": "N",
                "display": "Normal"
              }
            ]
          }
        ],
        "note": [
          {
            "text": "Definition: https://loinc.org/2282-2/"
          }
        ]
      },
      "request": {
        "method": "POST",
        "url": "Observation"
      }
    },
    {
      "fullUrl": "urn:uuid:34e9d54b-c4b1-46dc-a437-f25a2863a9ca",
      "resource": {
        "resourceType": "Observation",
        "id": "34e9d54b-c4b1-46dc-a437-f25a2863a9ca",
        "status": "final",
        "category": [
          {
            "coding": [
              {
                "system": "http://terminology.hl7.org/CodeSystem/observation-category",
                "code": "exam",
                "display": "Exam"
              }
            ],
            "text": "Exam"
          }
        ],
        "code": {
          "coding": [
            {
              "system": "http://snomed.info/sct",
              "code": "205091006",
              "display": "Congenital pes cavus"
            }
          ],
          "text": "Mild pes cavus"
        },
        "subject": {
          "reference": "Patient/ccebe06a-c3cb-48f7-929a-9781ec651419"
        },
        "encounter": {
          "reference": "Encounter/eae90e3e-3e04-48e6-a12b-5f266f02dec6"
        },
        "effectivePeriod": {
          "start": "2025-10-17T10:23:01.011885Z"
        },
        "valueBoolean": true,
        "note": [
          {
            "text": "Definition: https://snomed.info/id/205091006"
          }
        ]
      },
      "request": {
        "method": "POST",
        "url": "Observation"
      }
    },
    {
      "fullUrl": "urn:uuid:845b7e2a-9d54-45d0-975a-75fb6fd16136",
      "resource": {
        "resourceType": "Observation",
        "id": "845b7e2a-9d54-45d0-975a-75fb6fd16136",
        "status": "final",
        "category": [
          {
            "coding": [
              {
                "system": "http://terminology.hl7.org/CodeSystem/observation-category",
                "code": "exam",
                "display": "Exam"
              }
            ],
            "text": "Exam"
          }
        ],
        "code": {
          "coding": [
            {
              "system": "http://snomed.info/sct",
              "code": "298195002",
              "display": "Sacroiliac joint hypermobility"
            }
          ],
          "text": "Joint hypermobility"
        },
        "subject": {
          "reference": "Patient/ccebe06a-c3cb-48f7-929a-9781ec651419"
        },
        "encounter": {
          "reference": "Encounter/eae90e3e-3e04-48e6-a12b-5f266f02dec6"
        },
        "effectivePeriod": {
          "start": "2025-10-17T10:23:02.752788Z"
        },
        "valueBoolean": true,
        "note": [
          {
            "text": "Definition: https://snomed.info/id/298195002"
          }
        ]
      },
      "request": {
        "method": "POST",
        "url": "Observation"
      }
    },
    {
      "fullUrl": "urn:uuid:23a4a251-f7e5-461e-9a0f-f94e3e87297f",
      "resource": {
        "resourceType": "Observation",
        "id": "23a4a251-f7e5-461e-9a0f-f94e3e87297f",
        "status": "final",
        "category": [
          {
            "coding": [
              {
                "system": "http://terminology.hl7.org/CodeSystem/observation-category",
                "code": "exam",
                "display": "Exam"
              }
            ],
            "text": "Exam"
          }
        ],
        "code": {
          "coding": [
            {
              "system": "http://snomed.info/sct",
              "code": "65814009",
              "display": "Subluxation of lens"
            }
          ],
          "text": "Downward lens subluxation"
        },
        "subject": {
          "reference": "Patient/ccebe06a-c3cb-48f7-929a-9781ec651419"
        },
        "encounter": {
          "reference": "Encounter/eae90e3e-3e04-48e6-a12b-5f266f02dec6"
        },
        "effectivePeriod": {
          "start": "2025-10-17T10:23:05.469958Z"
        },
        "valueBoolean": true,
        "note": [
          {
            "text": "Definition: https://snomed.info/id/65814009"
          }
        ]
      },
      "request": {
        "method": "POST",
        "url": "Observation"
      }
    },
    {
      "fullUrl": "urn:uuid:c342d2c2-6100-4496-a164-2eb2cbbb91b3",
      "resource": {
        "resourceType": "Observation",
        "id": "c342d2c2-6100-4496-a164-2eb2cbbb91b3",
        "status": "final",
        "category": [
          {
            "coding": [
              {
                "system": "http://terminology.hl7.org/CodeSystem/observation-category",
                "code": "vital-signs",
                "display": "Vital Signs"
              }
            ],
            "text": "Vital Signs"
          }
        ],
        "code": {
          "coding": [
            {
              "system": "http://loinc.org",
              "code": "92998-4",
              "display": "Lower segment"
            }
          ],
          "text": "height"
        },
        "subject": {
          "reference": "Patient/ccebe06a-c3cb-48f7-929a-9781ec651419"
        },
        "encounter": {
          "reference": "Encounter/eae90e3e-3e04-48e6-a12b-5f266f02dec6"
        },
        "effectiveDateTime": "2025-10-17T10:23:05.615890Z",
        "valueQuantity": {
          "value": 162.0,
          "unit": "cm",
          "system": "http://unitsofmeasure.org",
          "code": "cm"
        },
        "interpretation": [
          {
            "coding": [
              {
                "system": "http://terminology.hl7.org/CodeSystem/v3-ObservationInterpretation",
                "code": "H",
                "display": "High"
              }
            ],
            "text": "High"
          }
        ]
      },
      "request": {
        "method": "POST",
        "url": "Observation"
      }
    },
    {
      "fullUrl": "urn:uuid:e5379595-937c-4b3a-bf74-1b5685db983c",
      "resource": {
        "resourceType": "Observation",
        "id": "e5379595-937c-4b3a-bf74-1b5685db983c",
        "status": "final",
        "category": [
          {
            "coding": [
              {
                "system": "http://terminology.hl7.org/CodeSystem/observation-category",
                "code": "vital-signs",
                "display": "Vital Signs"
              }
            ],
            "text": "Vital Signs"
          }
        ],
        "code": {
          "coding": [
            {
              "system": "http://loinc.org",
              "code": "8337-8",
              "display": "Bdy weight special circumstances"
            }
          ],
          "text": "weight"
        },
        "subject": {
          "reference": "Patient/ccebe06a-c3cb-48f7-929a-9781ec651419"
        },
        "encounter": {
          "reference": "Encounter/eae90e3e-3e04-48e6-a12b-5f266f02dec6"
        },
        "effectiveDateTime": "2025-10-17T10:23:05.741918Z",
        "valueQuantity": {
          "value": 42.0,
          "unit": "kg",
          "system": "http://unitsofmeasure.org",
          "code": "kg"
        }
      },
      "request": {
        "method": "POST",
        "url": "Observation"
      }
    },
    {
      "fullUrl": "urn:uuid:f2f8bb36-6c0f-4eb5-af8e-c13c87770154",
      "resource": {
        "resourceType": "Observation",
        "id": "f2f8bb36-6c0f-4eb5-af8e-c13c87770154",
        "status": "final",
        "category": [
          {
            "coding": [
              {
                "system": "http://terminology.hl7.org/CodeSystem/observation-category",
                "code": "vital-signs",
                "display": "Vital Signs"
              }
            ],
            "text": "Vital Signs"
          }
        ],
        "code": {
          "coding": [
            {
              "system": "http://loinc.org",
              "code": "107102-6",
              "display": "BMI formula"
            }
          ],
          "text": "BMI"
        },
        "subject": {
          "reference": "Patient/ccebe06a-c3cb-48f7-929a-9781ec651419"
        },
        "encounter": {
          "reference": "Encounter/eae90e3e-3e04-48e6-a12b-5f266f02dec6"
        },
        "effectiveDateTime": "2025-10-17T10:23:05.868076Z",
        "valueQuantity": {
          "value": 16.0,
          "unit": "kg/m²",
          "system": "http://unitsofmeasure.org",
          "code": "kg/m²"
        },
        "interpretation": [
          {
            "coding": [
              {
                "system": "http://terminology.hl7.org/CodeSystem/v3-ObservationInterpretation",
                "code": "L",
                "display": "Low"
              }
            ],
            "text": "Low"
          }
        ]
      },
      "request": {
        "method": "POST",
        "url": "Observation"
      }
    },
    {
      "fullUrl": "urn:uuid:68c694da-f1e4-4764-a004-78ca1de9e6b6",
      "resource": {
        "resourceType": "List",
        "id": "68c694da-f1e4-4764-a004-78ca1de9e6b6",
        "contained": [
          {
            "resourceType": "FamilyMemberHistory",
            "id": "fmh-1",
            "status": "completed",
            "patient": {
              "reference": "Patient/ccebe06a-c3cb-48f7-929a-9781ec651419"
            },
            "relationship": {
              "coding": [
                {
                  "system": "http://snomed.info/sct",
                  "code": "55538000",
                  "display": "Cousin"
                }
              ]
            },
            "deceasedBoolean": false,
            "condition": [
              {
                "code": {
                  "coding": [
                    {
                      "system": "http://snomed.info/sct",
                      "code": "237145004",
                      "display": "Unexplained infertility"
                    }
                  ]
                }
              }
            ]
          }
        ],
        "status": "current",
        "mode": "snapshot",
        "code": {
          "coding": [
            {
              "system": "http://loinc.org",
              "code": "8670-2",
              "display": "History of family member diseases"
            }
          ]
        },
        "subject": [
          {
            "reference": "Patient/ccebe06a-c3cb-48f7-929a-9781ec651419"
          }
        ],
        "entry": [
          {
            "item": {
              "reference": "#fmh-1"
            }
          }
        ]
      },
      "request": {
        "method": "POST",
        "url": "FamilyMemberHistory"
      }
    }
  ]
}