{
  "resourceType": "Bundle",
  "type": "transaction",
  "entry": [
    {
      "fullUrl": "urn:uuid:4cb30aea-352b-46fe-9d38-60855b4f0947",
      "resource": {
        "resourceType": "Patient",
        "id": "4cb30aea-352b-46fe-9d38-60855b4f0947",
        "name": [
          {
            "family": "Brooks",
            "given": [
              "Lucas"
            ]
          }
        ],
        "gender": "male",
        "birthDate": "2015-01-01",
        "address": [
          {}
        ]
      },
      "request": {
        "method": "POST",
        "url": "Patient"
      }
    },
    {
      "fullUrl": "urn:uuid:dcaaab5f-e456-41b5-b50d-080ab1385563",
      "resource": {
        "resourceType": "Encounter",
        "id": "dcaaab5f-e456-41b5-b50d-080ab1385563",
        "identifier": [
          {
            "use": "temp",
            "value": "Encounter_Lucas Brooks_20251020132649"
          }
        ],
        "status": "completed",
        "priority": {
          "coding": [
            {
              "system": "http://snomed.info/sct",
              "code": "17621005",
              "display": "Normal"
            }
          ]
        },
        "type": [
          {
            "coding": [
              {
                "system": "http://snomed.info/sct",
                "code": "11429006",
                "display": "Consultation"
              }
            ]
          }
        ],
        "subject": {
          "reference": "Patient/4cb30aea-352b-46fe-9d38-60855b4f0947",
          "display": "Lucas Brooks"
        },
        "reason": [
          {
            "value": [
              {
                "concept": {
                  "text": "complaints of mild clumsiness and difficulty with fine motor tasks"
                }
              }
            ]
          }
        ]
      },
      "request": {
        "method": "POST",
        "url": "Encounter"
      }
    },
    {
      "fullUrl": "urn:uuid:8ce30f50-e517-43a0-bb71-4549c80f10fa",
      "resource": {
        "resourceType": "Observation",
        "id": "8ce30f50-e517-43a0-bb71-4549c80f10fa",
        "status": "final",
        "category": [
          {
            "coding": [
              {
                "system": "http://terminology.hl7.org/CodeSystem/observation-category",
                "code": "laboratory",
                "display": "Laboratory"
              }
            ],
            "text": "Laboratory"
          }
        ],
        "code": {
          "coding": [
            {
              "system": "http://loinc.org",
              "code": "2428-1",
              "display": "Hcys SerPl-mCnc"
            }
          ],
          "text": "Homocysteine"
        },
        "subject": {
          "reference": "Patient/4cb30aea-352b-46fe-9d38-60855b4f0947"
        },
        "encounter": {
          "reference": "Encounter/dcaaab5f-e456-41b5-b50d-080ab1385563"
        },
        "effectiveDateTime": "2025-10-16",
        "valueQuantity": {
          "value": 15.0,
          "unit": "µmol/L",
          "system": "http://unitsofmeasure.org",
          "code": "µmol/L"
        },
        "interpretation": [
          {
            "coding": [
              {
                "system": "http://terminology.hl7.org/CodeSystem/v3-ObservationInterpretation",
                "code": "H",
                "display": "High"
              }
            ]
          }
        ],
        "note": [
          {
            "text": "Definition: https://loinc.org/2428-1/"
          }
        ]
      },
      "request": {
        "method": "POST",
        "url": "Observation"
      }
    },
    {
      "fullUrl": "urn:uuid:474f61f8-d1d0-420c-83ac-991e663d3605",
      "resource": {
        "resourceType": "Observation",
        "id": "474f61f8-d1d0-420c-83ac-991e663d3605",
        "status": "final",
        "category": [
          {
            "coding": [
              {
                "system": "http://terminology.hl7.org/CodeSystem/observation-category",
                "code": "laboratory",
                "display": "Laboratory"
              }
            ],
            "text": "Laboratory"
          }
        ],
        "code": {
          "coding": [
            {
              "system": "http://loinc.org",
              "code": "2623-7",
              "display": "Methionine Ur-mCnc"
            }
          ],
          "text": "Methionine"
        },
        "subject": {
          "reference": "Patient/4cb30aea-352b-46fe-9d38-60855b4f0947"
        },
        "encounter": {
          "reference": "Encounter/dcaaab5f-e456-41b5-b50d-080ab1385563"
        },
        "effectiveDateTime": "2025-10-16",
        "valueQuantity": {
          "value": 25.0,
          "unit": "µmol/L",
          "system": "http://unitsofmeasure.org",
          "code": "µmol/L"
        },
        "note": [
          {
            "text": "Definition: https://loinc.org/2623-7/"
          }
        ]
      },
      "request": {
        "method": "POST",
        "url": "Observation"
      }
    },
    {
      "fullUrl": "urn:uuid:f6a96ecd-0995-452c-8689-ca60f68064fd",
      "resource": {
        "resourceType": "Observation",
        "id": "f6a96ecd-0995-452c-8689-ca60f68064fd",
        "status": "final",
        "category": [
          {
            "coding": [
              {
                "system": "http://terminology.hl7.org/CodeSystem/observation-category",
                "code": "exam",
                "display": "Exam"
              }
            ],
            "text": "Exam"
          }
        ],
        "code": {
          "coding": [
            {
              "system": "http://snomed.info/sct",
              "code": "7006003",
              "display": "Clumsiness"
            }
          ],
          "text": "Clumsiness"
        },
        "subject": {
          "reference": "Patient/4cb30aea-352b-46fe-9d38-60855b4f0947"
        },
        "encounter": {
          "reference": "Encounter/dcaaab5f-e456-41b5-b50d-080ab1385563"
        },
        "effectivePeriod": {
          "start": "2025-10-16"
        },
        "valueBoolean": true,
        "note": [
          {
            "text": "Definition: https://snomed.info/id/7006003"
          }
        ]
      },
      "request": {
        "method": "POST",
        "url": "Observation"
      }
    },
    {
      "fullUrl": "urn:uuid:2a2162d6-a919-474f-835b-25582b462bec",
      "resource": {
        "resourceType": "Observation",
        "id": "2a2162d6-a919-474f-835b-25582b462bec",
        "status": "final",
        "category": [
          {
            "coding": [
              {
                "system": "http://terminology.hl7.org/CodeSystem/observation-category",
                "code": "exam",
                "display": "Exam"
              }
            ],
            "text": "Exam"
          }
        ],
        "code": {
          "coding": [
            {
              "system": "http://snomed.info/sct",
              "code": "1305003",
              "display": "Double"
            }
          ],
          "text": "Double vision"
        },
        "subject": {
          "reference": "Patient/4cb30aea-352b-46fe-9d38-60855b4f0947"
        },
        "encounter": {
          "reference": "Encounter/dcaaab5f-e456-41b5-b50d-080ab1385563"
        },
        "effectivePeriod": {
          "start": "2025-10-16"
        },
        "valueBoolean": true,
        "note": [
          {
            "text": "Definition: https://snomed.info/id/1305003"
          }
        ]
      },
      "request": {
        "method": "POST",
        "url": "Observation"
      }
    },
    {
      "fullUrl": "urn:uuid:ed72b9f5-411d-4d65-8112-f6b4412f4d57",
      "resource": {
        "resourceType": "Observation",
        "id": "ed72b9f5-411d-4d65-8112-f6b4412f4d57",
        "status": "final",
        "category": [
          {
            "coding": [
              {
                "system": "http://terminology.hl7.org/CodeSystem/observation-category",
                "code": "exam",
                "display": "Exam"
              }
            ],
            "text": "Exam"
          }
        ],
        "code": {
          "coding": [
            {
              "system": "http://snomed.info/sct",
              "code": "438562002",
              "display": "Reconstruction of dislocating patella with patellectomy"
            }
          ],
          "text": "Dislocating shoulder"
        },
        "subject": {
          "reference": "Patient/4cb30aea-352b-46fe-9d38-60855b4f0947"
        },
        "encounter": {
          "reference": "Encounter/dcaaab5f-e456-41b5-b50d-080ab1385563"
        },
        "effectivePeriod": {
          "start": "2025-10-16"
        },
        "valueBoolean": true,
        "note": [
          {
            "text": "Definition: https://snomed.info/id/438562002"
          }
        ]
      },
      "request": {
        "method": "POST",
        "url": "Observation"
      }
    },
    {
      "fullUrl": "urn:uuid:83f0c366-db69-48ef-86ff-c957355b9cae",
      "resource": {
        "resourceType": "Observation",
        "id": "83f0c366-db69-48ef-86ff-c957355b9cae",
        "status": "final",
        "category": [
          {
            "coding": [
              {
                "system": "http://terminology.hl7.org/CodeSystem/observation-category",
                "code": "vital-signs",
                "display": "Vital Signs"
              }
            ],
            "text": "Vital Signs"
          }
        ],
        "code": {
          "coding": [
            {
              "system": "http://loinc.org",
              "code": "8310-5",
              "display": "Body temperature"
            }
          ],
          "text": "temperature"
        },
        "subject": {
          "reference": "Patient/4cb30aea-352b-46fe-9d38-60855b4f0947"
        },
        "encounter": {
          "reference": "Encounter/dcaaab5f-e456-41b5-b50d-080ab1385563"
        },
        "effectiveDateTime": "2025-10-16",
        "valueQuantity": {
          "value": 98.6,
          "unit": "°F",
          "system": "http://unitsofmeasure.org",
          "code": "°F"
        },
        "interpretation": [
          {
            "coding": [
              {
                "system": "http://terminology.hl7.org/CodeSystem/v3-ObservationInterpretation",
                "code": "N",
                "display": "Normal"
              }
            ],
            "text": "Normal"
          }
        ]
      },
      "request": {
        "method": "POST",
        "url": "Observation"
      }
    },
    {
      "fullUrl": "urn:uuid:bf2f5b37-d666-4bc4-8ac5-859d17ce91eb",
      "resource": {
        "resourceType": "Observation",
        "id": "bf2f5b37-d666-4bc4-8ac5-859d17ce91eb",
        "status": "final",
        "category": [
          {
            "coding": [
              {
                "system": "http://terminology.hl7.org/CodeSystem/observation-category",
                "code": "vital-signs",
                "display": "Vital Signs"
              }
            ],
            "text": "Vital Signs"
          }
        ],
        "code": {
          "coding": [
            {
              "system": "http://loinc.org",
              "code": "8337-8",
              "display": "Bdy weight special circumstances"
            }
          ],
          "text": "weight"
        },
        "subject": {
          "reference": "Patient/4cb30aea-352b-46fe-9d38-60855b4f0947"
        },
        "encounter": {
          "reference": "Encounter/dcaaab5f-e456-41b5-b50d-080ab1385563"
        },
        "effectiveDateTime": "2025-10-16",
        "valueQuantity": {
          "value": 32.0,
          "unit": "kg",
          "system": "http://unitsofmeasure.org",
          "code": "kg"
        }
      },
      "request": {
        "method": "POST",
        "url": "Observation"
      }
    },
    {
      "fullUrl": "urn:uuid:ae1c81ca-9745-4a9a-964a-22df5e5c9a68",
      "resource": {
        "resourceType": "Observation",
        "id": "ae1c81ca-9745-4a9a-964a-22df5e5c9a68",
        "status": "final",
        "category": [
          {
            "coding": [
              {
                "system": "http://terminology.hl7.org/CodeSystem/observation-category",
                "code": "vital-signs",
                "display": "Vital Signs"
              }
            ],
            "text": "Vital Signs"
          }
        ],
        "code": {
          "coding": [
            {
              "system": "http://loinc.org",
              "code": "92998-4",
              "display": "Lower segment"
            }
          ],
          "text": "height"
        },
        "subject": {
          "reference": "Patient/4cb30aea-352b-46fe-9d38-60855b4f0947"
        },
        "encounter": {
          "reference": "Encounter/dcaaab5f-e456-41b5-b50d-080ab1385563"
        },
        "effectiveDateTime": "2025-10-16",
        "valueQuantity": {
          "value": 140.0,
          "unit": "cm",
          "system": "http://unitsofmeasure.org",
          "code": "cm"
        }
      },
      "request": {
        "method": "POST",
        "url": "Observation"
      }
    },
    {
      "fullUrl": "urn:uuid:59294c0f-c271-4b68-a086-d9a93060b771",
      "resource": {
        "resourceType": "Observation",
        "id": "59294c0f-c271-4b68-a086-d9a93060b771",
        "status": "final",
        "category": [
          {
            "coding": [
              {
                "system": "http://terminology.hl7.org/CodeSystem/observation-category",
                "code": "vital-signs",
                "display": "Vital Signs"
              }
            ],
            "text": "Vital Signs"
          }
        ],
        "code": {
          "coding": [
            {
              "system": "http://loinc.org",
              "code": "107102-6",
              "display": "BMI formula"
            }
          ],
          "text": "BMI"
        },
        "subject": {
          "reference": "Patient/4cb30aea-352b-46fe-9d38-60855b4f0947"
        },
        "encounter": {
          "reference": "Encounter/dcaaab5f-e456-41b5-b50d-080ab1385563"
        },
        "effectiveDateTime": "2025-10-16"
      },
      "request": {
        "method": "POST",
        "url": "Observation"
      }
    },
    {
      "fullUrl": "urn:uuid:0f43b4bf-0c01-4304-bafb-5b1061f08e09",
      "resource": {
        "resourceType": "Observation",
        "id": "0f43b4bf-0c01-4304-bafb-5b1061f08e09",
        "status": "final",
        "category": [
          {
            "coding": [
              {
                "system": "http://terminology.hl7.org/CodeSystem/observation-category",
                "code": "vital-signs",
                "display": "Vital Signs"
              }
            ],
            "text": "Vital Signs"
          }
        ],
        "code": {
          "coding": [
            {
              "system": "http://loinc.org",
              "code": "2717-7",
              "display": "OxyHgb MFr Plas"
            }
          ],
          "text": "oxygen_saturation"
        },
        "subject": {
          "reference": "Patient/4cb30aea-352b-46fe-9d38-60855b4f0947"
        },
        "encounter": {
          "reference": "Encounter/dcaaab5f-e456-41b5-b50d-080ab1385563"
        },
        "effectiveDateTime": "2025-10-16",
        "valueQuantity": {
          "value": 98.0,
          "unit": "%",
          "system": "http://unitsofmeasure.org",
          "code": "%"
        },
        "interpretation": [
          {
            "coding": [
              {
                "system": "http://terminology.hl7.org/CodeSystem/v3-ObservationInterpretation",
                "code": "N",
                "display": "Normal"
              }
            ],
            "text": "Normal"
          }
        ]
      },
      "request": {
        "method": "POST",
        "url": "Observation"
      }
    },
    {
      "fullUrl": "urn:uuid:7183a4ae-0bb9-4b01-9ac2-9928107a808d",
      "resource": {
        "resourceType": "Encounter",
        "id": "7183a4ae-0bb9-4b01-9ac2-9928107a808d",
        "identifier": [
          {
            "use": "temp",
            "value": "Encounter_Lucas Brooks_20251020132658"
          }
        ],
        "status": "completed",
        "priority": {
          "coding": [
            {
              "system": "http://snomed.info/sct",
              "code": "17621005",
              "display": "Normal"
            }
          ]
        },
        "type": [
          {
            "coding": [
              {
                "system": "http://snomed.info/sct",
                "code": "11429006",
                "display": "Consultation"
              }
            ]
          }
        ],
        "subject": {
          "reference": "Patient/4cb30aea-352b-46fe-9d38-60855b4f0947",
          "display": "Lucas Brooks"
        }
      },
      "request": {
        "method": "POST",
        "url": "Encounter"
      }
    },
    {
      "fullUrl": "urn:uuid:ccc28840-ac48-4708-b0b2-4adb8fbf0c69",
      "resource": {
        "resourceType": "List",
        "id": "ccc28840-ac48-4708-b0b2-4adb8fbf0c69",
        "contained": [
          {
            "resourceType": "FamilyMemberHistory",
            "id": "fmh-2",
            "status": "completed",
            "patient": {
              "reference": "Patient/4cb30aea-352b-46fe-9d38-60855b4f0947"
            },
            "relationship": {
              "coding": [
                {
                  "system": "http://snomed.info/sct",
                  "code": "66839005",
                  "display": "Father"
                }
              ]
            },
            "deceasedBoolean": false,
            "condition": [
              {
                "code": {
                  "coding": [
                    {
                      "system": "http://snomed.info/sct",
                      "code": "405495005",
                      "display": "High airway pressure"
                    }
                  ]
                }
              }
            ]
          }
        ],
        "status": "current",
        "mode": "snapshot",
        "code": {
          "coding": [
            {
              "system": "http://loinc.org",
              "code": "8670-2",
              "display": "History of family member diseases"
            }
          ]
        },
        "subject": [
          {
            "reference": "Patient/4cb30aea-352b-46fe-9d38-60855b4f0947"
          }
        ],
        "note": [
          {
            "text": "Both parents are alive and healthy otherwise"
          }
        ],
        "entry": [
          {
            "item": {
              "reference": "#fmh-2"
            }
          }
        ]
      },
      "request": {
        "method": "POST",
        "url": "FamilyMemberHistory"
      }
    }
  ]
}