{
  "resourceType": "Bundle",
  "type": "transaction",
  "entry": [
    {
      "fullUrl": "urn:uuid:1106c9cc-74cf-4984-8f15-8c6cd99c5f86",
      "resource": {
        "resourceType": "Patient",
        "id": "1106c9cc-74cf-4984-8f15-8c6cd99c5f86",
        "name": [
          {
            "family": "Orlov",
            "given": [
              "Kirill"
            ]
          }
        ],
        "gender": "male",
        "address": [
          {}
        ]
      },
      "request": {
        "method": "POST",
        "url": "Patient"
      }
    },
    {
      "fullUrl": "urn:uuid:2fb55cf7-e993-4dc0-b37e-aa8a7879723d",
      "resource": {
        "resourceType": "Encounter",
        "id": "2fb55cf7-e993-4dc0-b37e-aa8a7879723d",
        "identifier": [
          {
            "use": "temp",
            "value": "Encounter_Kirill Orlov_20251017182817"
          }
        ],
        "status": "completed",
        "priority": {
          "coding": [
            {
              "system": "http://snomed.info/sct",
              "code": "17621005",
              "display": "Normal"
            }
          ]
        },
        "type": [
          {
            "coding": [
              {
                "system": "http://snomed.info/sct",
                "code": "11429006",
                "display": "Consultation"
              }
            ]
          }
        ],
        "subject": {
          "reference": "Patient/1106c9cc-74cf-4984-8f15-8c6cd99c5f86",
          "display": "Kirill Orlov"
        },
        "reason": [
          {
            "value": [
              {
                "concept": {
                  "text": "developmental delay, mild learning difficulties, increase in height"
                }
              }
            ]
          }
        ]
      },
      "request": {
        "method": "POST",
        "url": "Encounter"
      }
    },
    {
      "fullUrl": "urn:uuid:e59987af-943d-42dd-b0e6-634914603b56",
      "resource": {
        "resourceType": "Observation",
        "id": "e59987af-943d-42dd-b0e6-634914603b56",
        "status": "final",
        "category": [
          {
            "coding": [
              {
                "system": "http://terminology.hl7.org/CodeSystem/observation-category",
                "code": "laboratory",
                "display": "Laboratory"
              }
            ],
            "text": "Laboratory"
          }
        ],
        "code": {
          "coding": [
            {
              "system": "http://loinc.org",
              "code": "54302-5",
              "display": "(Hcys)2 DBS-sCnc"
            }
          ],
          "text": "Blood homocysteine level"
        },
        "subject": {
          "reference": "Patient/1106c9cc-74cf-4984-8f15-8c6cd99c5f86"
        },
        "encounter": {
          "reference": "Encounter/2fb55cf7-e993-4dc0-b37e-aa8a7879723d"
        },
        "effectiveDateTime": "2025-10-16",
        "interpretation": [
          {
            "coding": [
              {
                "system": "http://terminology.hl7.org/CodeSystem/v3-ObservationInterpretation",
                "code": "H",
                "display": "High"
              }
            ]
          }
        ],
        "note": [
          {
            "text": "Definition: https://loinc.org/54302-5/"
          }
        ]
      },
      "request": {
        "method": "POST",
        "url": "Observation"
      }
    },
    {
      "fullUrl": "urn:uuid:4ebcafb6-89b2-4bb9-abf9-3b95faf0924c",
      "resource": {
        "resourceType": "Observation",
        "id": "4ebcafb6-89b2-4bb9-abf9-3b95faf0924c",
        "status": "final",
        "category": [
          {
            "coding": [
              {
                "system": "http://terminology.hl7.org/CodeSystem/observation-category",
                "code": "laboratory",
                "display": "Laboratory"
              }
            ],
            "text": "Laboratory"
          }
        ],
        "code": {
          "coding": [
            {
              "system": "http://loinc.org",
              "code": "2431-5",
              "display": "(Hcys)2 Ur-mCnc"
            }
          ],
          "text": "Urine homocystine level"
        },
        "subject": {
          "reference": "Patient/1106c9cc-74cf-4984-8f15-8c6cd99c5f86"
        },
        "encounter": {
          "reference": "Encounter/2fb55cf7-e993-4dc0-b37e-aa8a7879723d"
        },
        "effectiveDateTime": "2025-10-16",
        "interpretation": [
          {
            "coding": [
              {
                "system": "http://terminology.hl7.org/CodeSystem/v3-ObservationInterpretation",
                "code": "H",
                "display": "High"
              }
            ]
          }
        ],
        "note": [
          {
            "text": "Definition: https://loinc.org/2431-5/"
          }
        ]
      },
      "request": {
        "method": "POST",
        "url": "Observation"
      }
    },
    {
      "fullUrl": "urn:uuid:03c7408e-bfa7-4a63-bcd9-e1c1fee605ee",
      "resource": {
        "resourceType": "Observation",
        "id": "03c7408e-bfa7-4a63-bcd9-e1c1fee605ee",
        "status": "final",
        "category": [
          {
            "coding": [
              {
                "system": "http://terminology.hl7.org/CodeSystem/observation-category",
                "code": "exam",
                "display": "Exam"
              }
            ],
            "text": "Exam"
          }
        ],
        "code": {
          "coding": [
            {
              "system": "http://snomed.info/sct",
              "code": "7006003",
              "display": "Clumsiness"
            }
          ],
          "text": "Clumsiness"
        },
        "subject": {
          "reference": "Patient/1106c9cc-74cf-4984-8f15-8c6cd99c5f86"
        },
        "encounter": {
          "reference": "Encounter/2fb55cf7-e993-4dc0-b37e-aa8a7879723d"
        },
        "effectivePeriod": {
          "start": "2025-10-16"
        },
        "valueBoolean": true,
        "note": [
          {
            "text": "Definition: https://snomed.info/id/7006003"
          }
        ]
      },
      "request": {
        "method": "POST",
        "url": "Observation"
      }
    },
    {
      "fullUrl": "urn:uuid:7f9e7dcc-9d33-4329-8308-b61657b9f66e",
      "resource": {
        "resourceType": "Observation",
        "id": "7f9e7dcc-9d33-4329-8308-b61657b9f66e",
        "status": "final",
        "category": [
          {
            "coding": [
              {
                "system": "http://terminology.hl7.org/CodeSystem/observation-category",
                "code": "exam",
                "display": "Exam"
              }
            ],
            "text": "Exam"
          }
        ],
        "code": {
          "coding": [
            {
              "system": "http://snomed.info/sct"
            }
          ],
          "text": "Hyperflexibility"
        },
        "subject": {
          "reference": "Patient/1106c9cc-74cf-4984-8f15-8c6cd99c5f86"
        },
        "encounter": {
          "reference": "Encounter/2fb55cf7-e993-4dc0-b37e-aa8a7879723d"
        },
        "effectivePeriod": {
          "start": "2025-10-16"
        },
        "valueBoolean": true,
        "note": [
          {
            "text": "Definition: https://snomed.info/id/None"
          }
        ]
      },
      "request": {
        "method": "POST",
        "url": "Observation"
      }
    },
    {
      "fullUrl": "urn:uuid:4ae76ccd-1650-4471-a138-1b18cc713afb",
      "resource": {
        "resourceType": "Observation",
        "id": "4ae76ccd-1650-4471-a138-1b18cc713afb",
        "status": "final",
        "category": [
          {
            "coding": [
              {
                "system": "http://terminology.hl7.org/CodeSystem/observation-category",
                "code": "vital-signs",
                "display": "Vital Signs"
              }
            ],
            "text": "Vital Signs"
          }
        ],
        "code": {
          "coding": [
            {
              "system": "http://loinc.org",
              "code": "92998-4",
              "display": "Lower segment"
            }
          ],
          "text": "Height"
        },
        "subject": {
          "reference": "Patient/1106c9cc-74cf-4984-8f15-8c6cd99c5f86"
        },
        "encounter": {
          "reference": "Encounter/2fb55cf7-e993-4dc0-b37e-aa8a7879723d"
        },
        "effectiveDateTime": "2025-10-16",
        "interpretation": [
          {
            "coding": [
              {
                "system": "http://terminology.hl7.org/CodeSystem/v3-ObservationInterpretation",
                "code": "H",
                "display": "High"
              }
            ],
            "text": "High"
          }
        ]
      },
      "request": {
        "method": "POST",
        "url": "Observation"
      }
    },
    {
      "fullUrl": "urn:uuid:40e53cc8-b9d4-4885-bdb0-09b494defee0",
      "resource": {
        "resourceType": "List",
        "id": "40e53cc8-b9d4-4885-bdb0-09b494defee0",
        "contained": [
          {
            "resourceType": "FamilyMemberHistory",
            "id": "fmh-1",
            "status": "completed",
            "patient": {
              "reference": "Patient/1106c9cc-74cf-4984-8f15-8c6cd99c5f86"
            },
            "relationship": {
              "coding": [
                {
                  "system": "http://snomed.info/sct",
                  "code": "719759007",
                  "display": "Maternal cousin"
                }
              ]
            },
            "deceasedBoolean": false,
            "condition": [
              {
                "code": {
                  "coding": [
                    {
                      "system": "http://snomed.info/sct",
                      "code": "770751003",
                      "display": "Severe motor and intellectual disabilities, sensorineural deafness, dystonia syndrome"
                    }
                  ]
                }
              },
              {
                "code": {
                  "coding": [
                    {
                      "system": "http://snomed.info/sct",
                      "code": "449211000124105",
                      "display": "Blood clots in stool"
                    }
                  ]
                }
              }
            ]
          }
        ],
        "status": "current",
        "mode": "snapshot",
        "code": {
          "coding": [
            {
              "system": "http://loinc.org",
              "code": "8670-2",
              "display": "History of family member diseases"
            }
          ]
        },
        "subject": [
          {
            "reference": "Patient/1106c9cc-74cf-4984-8f15-8c6cd99c5f86"
          }
        ],
        "entry": [
          {
            "item": {
              "reference": "#fmh-1"
            }
          }
        ]
      },
      "request": {
        "method": "POST",
        "url": "FamilyMemberHistory"
      }
    }
  ]
}