{
  "resourceType": "Bundle",
  "type": "transaction",
  "entry": [
    {
      "fullUrl": "urn:uuid:08ea3d69-211b-4529-ad60-cc99fa0db86a",
      "resource": {
        "resourceType": "Patient",
        "id": "08ea3d69-211b-4529-ad60-cc99fa0db86a",
        "name": [
          {
            "family": "Wilson",
            "given": [
              "Emily"
            ]
          }
        ],
        "gender": "female",
        "birthDate": "2000-07-12",
        "address": [
          {}
        ]
      },
      "request": {
        "method": "POST",
        "url": "Patient"
      }
    },
    {
      "fullUrl": "urn:uuid:e16b92ae-706f-4aa5-89c0-545872344d8a",
      "resource": {
        "resourceType": "Encounter",
        "id": "e16b92ae-706f-4aa5-89c0-545872344d8a",
        "identifier": [
          {
            "use": "temp",
            "value": "Encounter_Emily Wilson_20251021093906"
          }
        ],
        "status": "completed",
        "priority": {
          "coding": [
            {
              "system": "http://snomed.info/sct",
              "code": "17621005",
              "display": "Normal"
            }
          ]
        },
        "type": [
          {
            "coding": [
              {
                "system": "http://snomed.info/sct",
                "code": "11429006",
                "display": "Consultation"
              }
            ]
          }
        ],
        "subject": {
          "reference": "Patient/08ea3d69-211b-4529-ad60-cc99fa0db86a",
          "display": "Emily Wilson"
        },
        "reason": [
          {
            "value": [
              {
                "concept": {
                  "text": "complaints of blurred vision and occasional double vision"
                }
              }
            ]
          }
        ]
      },
      "request": {
        "method": "POST",
        "url": "Encounter"
      }
    },
    {
      "fullUrl": "urn:uuid:deda5c6b-9d95-414b-bafd-f705d7bc4169",
      "resource": {
        "resourceType": "Observation",
        "id": "deda5c6b-9d95-414b-bafd-f705d7bc4169",
        "status": "final",
        "category": [
          {
            "coding": [
              {
                "system": "http://terminology.hl7.org/CodeSystem/observation-category",
                "code": "laboratory",
                "display": "Laboratory"
              }
            ],
            "text": "Laboratory"
          }
        ],
        "code": {
          "coding": [
            {
              "system": "http://loinc.org",
              "code": "32615-7",
              "display": "Hycs-Cys diS SerPl-sCnc"
            }
          ],
          "text": "Serum Homocysteine"
        },
        "subject": {
          "reference": "Patient/08ea3d69-211b-4529-ad60-cc99fa0db86a"
        },
        "encounter": {
          "reference": "Encounter/e16b92ae-706f-4aa5-89c0-545872344d8a"
        },
        "effectiveDateTime": "2025-10-16",
        "valueQuantity": {
          "value": 25.0,
          "unit": "μmol/L",
          "system": "http://unitsofmeasure.org",
          "code": "μmol/L"
        },
        "interpretation": [
          {
            "coding": [
              {
                "system": "http://terminology.hl7.org/CodeSystem/v3-ObservationInterpretation",
                "code": "H",
                "display": "High"
              }
            ]
          }
        ],
        "note": [
          {
            "text": "Definition: https://loinc.org/32615-7/"
          }
        ]
      },
      "request": {
        "method": "POST",
        "url": "Observation"
      }
    },
    {
      "fullUrl": "urn:uuid:f7e0789a-3cba-4979-86d4-bb8a696e4d5e",
      "resource": {
        "resourceType": "Observation",
        "id": "f7e0789a-3cba-4979-86d4-bb8a696e4d5e",
        "status": "final",
        "category": [
          {
            "coding": [
              {
                "system": "http://terminology.hl7.org/CodeSystem/observation-category",
                "code": "laboratory",
                "display": "Laboratory"
              }
            ],
            "text": "Laboratory"
          }
        ],
        "code": {
          "coding": [
            {
              "system": "http://loinc.org",
              "code": "58410-2",
              "display": "Complete blood count panel"
            }
          ],
          "text": "Complete Blood Count"
        },
        "subject": {
          "reference": "Patient/08ea3d69-211b-4529-ad60-cc99fa0db86a"
        },
        "encounter": {
          "reference": "Encounter/e16b92ae-706f-4aa5-89c0-545872344d8a"
        },
        "effectiveDateTime": "2025-10-16",
        "interpretation": [
          {
            "coding": [
              {
                "system": "http://terminology.hl7.org/CodeSystem/v3-ObservationInterpretation",
                "code": "N",
                "display": "Normal"
              }
            ]
          }
        ],
        "note": [
          {
            "text": "Definition: https://loinc.org/58410-2/"
          }
        ]
      },
      "request": {
        "method": "POST",
        "url": "Observation"
      }
    },
    {
      "fullUrl": "urn:uuid:f96dcb04-1e90-4c74-9357-1996f86853e0",
      "resource": {
        "resourceType": "Observation",
        "id": "f96dcb04-1e90-4c74-9357-1996f86853e0",
        "status": "final",
        "category": [
          {
            "coding": [
              {
                "system": "http://terminology.hl7.org/CodeSystem/observation-category",
                "code": "laboratory",
                "display": "Laboratory"
              }
            ],
            "text": "Laboratory"
          }
        ],
        "code": {
          "coding": [
            {
              "system": "http://loinc.org",
              "code": "51990-0",
              "display": "Basic metabolic panel"
            }
          ],
          "text": "Basic Metabolic Panel"
        },
        "subject": {
          "reference": "Patient/08ea3d69-211b-4529-ad60-cc99fa0db86a"
        },
        "encounter": {
          "reference": "Encounter/e16b92ae-706f-4aa5-89c0-545872344d8a"
        },
        "effectiveDateTime": "2025-10-16",
        "interpretation": [
          {
            "coding": [
              {
                "system": "http://terminology.hl7.org/CodeSystem/v3-ObservationInterpretation",
                "code": "N",
                "display": "Normal"
              }
            ]
          }
        ],
        "note": [
          {
            "text": "Definition: https://loinc.org/51990-0/"
          }
        ]
      },
      "request": {
        "method": "POST",
        "url": "Observation"
      }
    },
    {
      "fullUrl": "urn:uuid:94501f7b-200b-45c3-8508-759992fcbbbb",
      "resource": {
        "resourceType": "Observation",
        "id": "94501f7b-200b-45c3-8508-759992fcbbbb",
        "status": "final",
        "category": [
          {
            "coding": [
              {
                "system": "http://terminology.hl7.org/CodeSystem/observation-category",
                "code": "exam",
                "display": "Exam"
              }
            ],
            "text": "Exam"
          }
        ],
        "code": {
          "coding": [
            {
              "system": "http://snomed.info/sct",
              "code": "72436007",
              "display": "Blurred disc margin"
            }
          ],
          "text": "Blurred Vision"
        },
        "subject": {
          "reference": "Patient/08ea3d69-211b-4529-ad60-cc99fa0db86a"
        },
        "encounter": {
          "reference": "Encounter/e16b92ae-706f-4aa5-89c0-545872344d8a"
        },
        "effectivePeriod": {
          "start": "2025-10-16"
        },
        "valueBoolean": true,
        "note": [
          {
            "text": "Definition: https://snomed.info/id/72436007"
          }
        ]
      },
      "request": {
        "method": "POST",
        "url": "Observation"
      }
    },
    {
      "fullUrl": "urn:uuid:fe75536a-7fbf-4362-ad2d-1d7f52934504",
      "resource": {
        "resourceType": "Observation",
        "id": "fe75536a-7fbf-4362-ad2d-1d7f52934504",
        "status": "final",
        "category": [
          {
            "coding": [
              {
                "system": "http://terminology.hl7.org/CodeSystem/observation-category",
                "code": "exam",
                "display": "Exam"
              }
            ],
            "text": "Exam"
          }
        ],
        "code": {
          "coding": [
            {
              "system": "http://snomed.info/sct",
              "code": "1305003",
              "display": "Double"
            }
          ],
          "text": "Double Vision"
        },
        "subject": {
          "reference": "Patient/08ea3d69-211b-4529-ad60-cc99fa0db86a"
        },
        "encounter": {
          "reference": "Encounter/e16b92ae-706f-4aa5-89c0-545872344d8a"
        },
        "effectivePeriod": {
          "start": "2025-10-16"
        },
        "valueBoolean": true,
        "note": [
          {
            "text": "Definition: https://snomed.info/id/1305003"
          }
        ]
      },
      "request": {
        "method": "POST",
        "url": "Observation"
      }
    },
    {
      "fullUrl": "urn:uuid:f0732956-b1c6-4f01-bd70-61ee0fc6009f",
      "resource": {
        "resourceType": "Observation",
        "id": "f0732956-b1c6-4f01-bd70-61ee0fc6009f",
        "status": "final",
        "category": [
          {
            "coding": [
              {
                "system": "http://terminology.hl7.org/CodeSystem/observation-category",
                "code": "exam",
                "display": "Exam"
              }
            ],
            "text": "Exam"
          }
        ],
        "code": {
          "coding": [
            {
              "system": "http://snomed.info/sct",
              "code": "26544005",
              "display": "Muscle weakness"
            }
          ],
          "text": "Mild Muscle Weakness"
        },
        "subject": {
          "reference": "Patient/08ea3d69-211b-4529-ad60-cc99fa0db86a"
        },
        "encounter": {
          "reference": "Encounter/e16b92ae-706f-4aa5-89c0-545872344d8a"
        },
        "effectivePeriod": {
          "start": "2025-10-16"
        },
        "valueBoolean": true,
        "note": [
          {
            "text": "Definition: https://snomed.info/id/26544005"
          }
        ]
      },
      "request": {
        "method": "POST",
        "url": "Observation"
      }
    },
    {
      "fullUrl": "urn:uuid:d338948b-66e6-442f-81ec-dd56bddae7a9",
      "resource": {
        "resourceType": "Observation",
        "id": "d338948b-66e6-442f-81ec-dd56bddae7a9",
        "status": "final",
        "category": [
          {
            "coding": [
              {
                "system": "http://terminology.hl7.org/CodeSystem/observation-category",
                "code": "vital-signs",
                "display": "Vital Signs"
              }
            ],
            "text": "Vital Signs"
          }
        ],
        "code": {
          "coding": [
            {
              "system": "http://loinc.org",
              "code": "18684-1",
              "display": "Blood pressure"
            }
          ],
          "text": "Blood Pressure"
        },
        "subject": {
          "reference": "Patient/08ea3d69-211b-4529-ad60-cc99fa0db86a"
        },
        "encounter": {
          "reference": "Encounter/e16b92ae-706f-4aa5-89c0-545872344d8a"
        },
        "effectiveDateTime": "2025-10-16",
        "valueQuantity": {
          "value": 128.0,
          "unit": "mmHg",
          "system": "http://unitsofmeasure.org",
          "code": "mmHg"
        },
        "interpretation": [
          {
            "coding": [
              {
                "system": "http://terminology.hl7.org/CodeSystem/v3-ObservationInterpretation",
                "code": "N",
                "display": "Normal"
              }
            ],
            "text": "Normal"
          }
        ]
      },
      "request": {
        "method": "POST",
        "url": "Observation"
      }
    },
    {
      "fullUrl": "urn:uuid:8885f348-9b33-4dc7-a77c-dbd7a09a144a",
      "resource": {
        "resourceType": "Observation",
        "id": "8885f348-9b33-4dc7-a77c-dbd7a09a144a",
        "status": "final",
        "category": [
          {
            "coding": [
              {
                "system": "http://terminology.hl7.org/CodeSystem/observation-category",
                "code": "vital-signs",
                "display": "Vital Signs"
              }
            ],
            "text": "Vital Signs"
          }
        ],
        "code": {
          "coding": [
            {
              "system": "http://loinc.org",
              "code": "62733-1",
              "display": "PhenX - respiratory - pulse oximetry - rest protocol 091101"
            }
          ],
          "text": "Pulse"
        },
        "subject": {
          "reference": "Patient/08ea3d69-211b-4529-ad60-cc99fa0db86a"
        },
        "encounter": {
          "reference": "Encounter/e16b92ae-706f-4aa5-89c0-545872344d8a"
        },
        "effectiveDateTime": "2025-10-16",
        "valueQuantity": {
          "value": 72.0,
          "unit": "bpm",
          "system": "http://unitsofmeasure.org",
          "code": "bpm"
        },
        "interpretation": [
          {
            "coding": [
              {
                "system": "http://terminology.hl7.org/CodeSystem/v3-ObservationInterpretation",
                "code": "N",
                "display": "Normal"
              }
            ],
            "text": "Normal"
          }
        ]
      },
      "request": {
        "method": "POST",
        "url": "Observation"
      }
    },
    {
      "fullUrl": "urn:uuid:6bce06d5-163f-4cd7-b765-31654857898e",
      "resource": {
        "resourceType": "Observation",
        "id": "6bce06d5-163f-4cd7-b765-31654857898e",
        "status": "final",
        "category": [
          {
            "coding": [
              {
                "system": "http://terminology.hl7.org/CodeSystem/observation-category",
                "code": "vital-signs",
                "display": "Vital Signs"
              }
            ],
            "text": "Vital Signs"
          }
        ],
        "code": {
          "coding": [
            {
              "system": "http://loinc.org",
              "code": "107102-6",
              "display": "BMI formula"
            }
          ],
          "text": "BMI"
        },
        "subject": {
          "reference": "Patient/08ea3d69-211b-4529-ad60-cc99fa0db86a"
        },
        "encounter": {
          "reference": "Encounter/e16b92ae-706f-4aa5-89c0-545872344d8a"
        },
        "effectiveDateTime": "2025-10-16",
        "valueQuantity": {
          "value": 22.1,
          "unit": "kg/m²",
          "system": "http://unitsofmeasure.org",
          "code": "kg/m²"
        },
        "interpretation": [
          {
            "coding": [
              {
                "system": "http://terminology.hl7.org/CodeSystem/v3-ObservationInterpretation",
                "code": "N",
                "display": "Normal"
              }
            ],
            "text": "Normal"
          }
        ]
      },
      "request": {
        "method": "POST",
        "url": "Observation"
      }
    },
    {
      "fullUrl": "urn:uuid:ff38d22b-ad34-4db8-9aac-6d6c221115e8",
      "resource": {
        "resourceType": "MedicationStatement",
        "id": "ff38d22b-ad34-4db8-9aac-6d6c221115e8",
        "status": "recorded",
        "medication": {
          "concept": {
            "coding": [
              {
                "system": "http://snomed.info/sct",
                "code": "412250002",
                "display": "Multivitamin agent"
              }
            ],
            "text": "Multivitamin"
          }
        },
        "subject": {
          "reference": "Patient/08ea3d69-211b-4529-ad60-cc99fa0db86a"
        },
        "encounter": {
          "reference": "Encounter/e16b92ae-706f-4aa5-89c0-545872344d8a"
        },
        "effectiveDateTime": "2025-10-16",
        "informationSource": [
          {
            "reference": "Patient/08ea3d69-211b-4529-ad60-cc99fa0db86a"
          }
        ],
        "dosage": [
          {
            "text": "daily",
            "timing": {
              "repeat": {
                "frequency": 1,
                "period": 1.0,
                "periodUnit": "d"
              }
            }
          }
        ],
        "adherence": {
          "code": {
            "coding": [
              {
                "system": "http://hl7.org/fhir/CodeSystem/medication-statement-adherence",
                "code": "taking",
                "display": "Taking"
              }
            ]
          }
        }
      },
      "request": {
        "method": "POST",
        "url": "MedicationStatement"
      }
    },
    {
      "fullUrl": "urn:uuid:c3d68d31-0f62-40d4-bf36-784076556602",
      "resource": {
        "resourceType": "Encounter",
        "id": "c3d68d31-0f62-40d4-bf36-784076556602",
        "identifier": [
          {
            "use": "temp",
            "value": "Encounter_Emily Wilson_20251021093915"
          }
        ],
        "status": "completed",
        "priority": {
          "coding": [
            {
              "system": "http://snomed.info/sct",
              "code": "17621005",
              "display": "Normal"
            }
          ]
        },
        "type": [
          {
            "coding": [
              {
                "system": "http://snomed.info/sct",
                "code": "11429006",
                "display": "Consultation"
              }
            ]
          }
        ],
        "subject": {
          "reference": "Patient/08ea3d69-211b-4529-ad60-cc99fa0db86a",
          "display": "Emily Wilson"
        }
      },
      "request": {
        "method": "POST",
        "url": "Encounter"
      }
    },
    {
      "fullUrl": "urn:uuid:51faaefa-c7bc-48ee-b7ce-58a4b425779c",
      "resource": {
        "resourceType": "List",
        "id": "51faaefa-c7bc-48ee-b7ce-58a4b425779c",
        "contained": [
          {
            "resourceType": "FamilyMemberHistory",
            "id": "fmh-3",
            "status": "completed",
            "patient": {
              "reference": "Patient/08ea3d69-211b-4529-ad60-cc99fa0db86a"
            },
            "relationship": {
              "coding": [
                {
                  "system": "http://snomed.info/sct",
                  "code": "85411004",
                  "display": "Younger brother"
                }
              ]
            },
            "deceasedBoolean": false,
            "condition": [
              {
                "code": {
                  "coding": [
                    {
                      "system": "http://snomed.info/sct",
                      "code": "408468001",
                      "display": "Learning disability - specialty"
                    }
                  ]
                }
              }
            ]
          }
        ],
        "status": "current",
        "mode": "snapshot",
        "code": {
          "coding": [
            {
              "system": "http://loinc.org",
              "code": "8670-2",
              "display": "History of family member diseases"
            }
          ]
        },
        "subject": [
          {
            "reference": "Patient/08ea3d69-211b-4529-ad60-cc99fa0db86a"
          }
        ],
        "note": [
          {
            "text": "Both parents are alive and healthy, with no known chronic medical conditions."
          }
        ],
        "entry": [
          {
            "item": {
              "reference": "#fmh-3"
            }
          }
        ]
      },
      "request": {
        "method": "POST",
        "url": "FamilyMemberHistory"
      }
    }
  ]
}