{
  "resourceType": "Bundle",
  "type": "transaction",
  "entry": [
    {
      "fullUrl": "urn:uuid:4681de55-0088-47a8-9fca-0b7dd9f87d2f",
      "resource": {
        "resourceType": "Patient",
        "id": "4681de55-0088-47a8-9fca-0b7dd9f87d2f",
        "name": [
          {
            "family": "Pavlova",
            "given": [
              "Anastasia"
            ]
          }
        ],
        "gender": "female",
        "birthDate": "2015-07-04",
        "address": [
          {}
        ]
      },
      "request": {
        "method": "POST",
        "url": "Patient"
      }
    },
    {
      "fullUrl": "urn:uuid:2cd95cf3-b0da-455b-9c75-63f3e7cf4da7",
      "resource": {
        "resourceType": "Encounter",
        "id": "2cd95cf3-b0da-455b-9c75-63f3e7cf4da7",
        "identifier": [
          {
            "use": "temp",
            "value": "Encounter_Anastasia Pavlova_20251020131837"
          }
        ],
        "status": "completed",
        "priority": {
          "coding": [
            {
              "system": "http://snomed.info/sct",
              "code": "17621005",
              "display": "Normal"
            }
          ]
        },
        "type": [
          {
            "coding": [
              {
                "system": "http://snomed.info/sct",
                "code": "11429006",
                "display": "Consultation"
              }
            ]
          }
        ],
        "subject": {
          "reference": "Patient/4681de55-0088-47a8-9fca-0b7dd9f87d2f",
          "display": "Anastasia Pavlova"
        },
        "reason": [
          {
            "value": [
              {
                "concept": {
                  "text": "delayed speech development and frequent episodes of joint dislocation"
                }
              }
            ]
          }
        ]
      },
      "request": {
        "method": "POST",
        "url": "Encounter"
      }
    },
    {
      "fullUrl": "urn:uuid:8ce4dbc9-f58d-4cad-a785-49513e41d034",
      "resource": {
        "resourceType": "Observation",
        "id": "8ce4dbc9-f58d-4cad-a785-49513e41d034",
        "status": "final",
        "category": [
          {
            "coding": [
              {
                "system": "http://terminology.hl7.org/CodeSystem/observation-category",
                "code": "laboratory",
                "display": "Laboratory"
              }
            ],
            "text": "Laboratory"
          }
        ],
        "code": {
          "coding": [
            {
              "system": "http://loinc.org",
              "code": "2428-1",
              "display": "Hcys SerPl-mCnc"
            }
          ],
          "text": "Homocysteine"
        },
        "subject": {
          "reference": "Patient/4681de55-0088-47a8-9fca-0b7dd9f87d2f"
        },
        "encounter": {
          "reference": "Encounter/2cd95cf3-b0da-455b-9c75-63f3e7cf4da7"
        },
        "effectiveDateTime": "2025-10-16",
        "interpretation": [
          {
            "coding": [
              {
                "system": "http://terminology.hl7.org/CodeSystem/v3-ObservationInterpretation",
                "code": "H",
                "display": "High"
              }
            ]
          }
        ],
        "note": [
          {
            "text": "Definition: https://loinc.org/2428-1/"
          }
        ]
      },
      "request": {
        "method": "POST",
        "url": "Observation"
      }
    },
    {
      "fullUrl": "urn:uuid:066737e3-a7be-4999-bd29-131611459410",
      "resource": {
        "resourceType": "Observation",
        "id": "066737e3-a7be-4999-bd29-131611459410",
        "status": "final",
        "category": [
          {
            "coding": [
              {
                "system": "http://terminology.hl7.org/CodeSystem/observation-category",
                "code": "laboratory",
                "display": "Laboratory"
              }
            ],
            "text": "Laboratory"
          }
        ],
        "code": {
          "coding": [
            {
              "system": "http://loinc.org",
              "code": "18729-4",
              "display": "Urinalysis studies"
            }
          ],
          "text": "Urinalysis"
        },
        "subject": {
          "reference": "Patient/4681de55-0088-47a8-9fca-0b7dd9f87d2f"
        },
        "encounter": {
          "reference": "Encounter/2cd95cf3-b0da-455b-9c75-63f3e7cf4da7"
        },
        "effectiveDateTime": "2025-10-16",
        "interpretation": [
          {
            "coding": [
              {
                "system": "http://terminology.hl7.org/CodeSystem/v3-ObservationInterpretation",
                "code": "A",
                "display": "Abnormal"
              }
            ]
          }
        ],
        "note": [
          {
            "text": "Definition: https://loinc.org/18729-4/"
          }
        ]
      },
      "request": {
        "method": "POST",
        "url": "Observation"
      }
    },
    {
      "fullUrl": "urn:uuid:91fd102e-109c-4263-b30c-6bf7a4619f54",
      "resource": {
        "resourceType": "Observation",
        "id": "91fd102e-109c-4263-b30c-6bf7a4619f54",
        "status": "final",
        "category": [
          {
            "coding": [
              {
                "system": "http://terminology.hl7.org/CodeSystem/observation-category",
                "code": "exam",
                "display": "Exam"
              }
            ],
            "text": "Exam"
          }
        ],
        "code": {
          "coding": [
            {
              "system": "http://snomed.info/sct",
              "code": "425067005",
              "display": "Speech and language development finding"
            }
          ],
          "text": "Delayed speech development"
        },
        "subject": {
          "reference": "Patient/4681de55-0088-47a8-9fca-0b7dd9f87d2f"
        },
        "encounter": {
          "reference": "Encounter/2cd95cf3-b0da-455b-9c75-63f3e7cf4da7"
        },
        "effectivePeriod": {
          "start": "2025-10-16"
        },
        "valueBoolean": true,
        "note": [
          {
            "text": "Definition: https://snomed.info/id/425067005"
          }
        ]
      },
      "request": {
        "method": "POST",
        "url": "Observation"
      }
    },
    {
      "fullUrl": "urn:uuid:ed9d62cf-4f91-49eb-a1d0-3df296224be3",
      "resource": {
        "resourceType": "Observation",
        "id": "ed9d62cf-4f91-49eb-a1d0-3df296224be3",
        "status": "final",
        "category": [
          {
            "coding": [
              {
                "system": "http://terminology.hl7.org/CodeSystem/observation-category",
                "code": "exam",
                "display": "Exam"
              }
            ],
            "text": "Exam"
          }
        ],
        "code": {
          "coding": [
            {
              "system": "http://snomed.info/sct",
              "code": "108367008",
              "display": "Dislocation of joint"
            }
          ],
          "text": "Joint dislocation"
        },
        "subject": {
          "reference": "Patient/4681de55-0088-47a8-9fca-0b7dd9f87d2f"
        },
        "encounter": {
          "reference": "Encounter/2cd95cf3-b0da-455b-9c75-63f3e7cf4da7"
        },
        "effectivePeriod": {
          "start": "2025-10-16"
        },
        "valueBoolean": true,
        "note": [
          {
            "text": "Definition: https://snomed.info/id/108367008"
          }
        ]
      },
      "request": {
        "method": "POST",
        "url": "Observation"
      }
    },
    {
      "fullUrl": "urn:uuid:86b0af31-084b-4516-9600-84f05121044d",
      "resource": {
        "resourceType": "Observation",
        "id": "86b0af31-084b-4516-9600-84f05121044d",
        "status": "final",
        "category": [
          {
            "coding": [
              {
                "system": "http://terminology.hl7.org/CodeSystem/observation-category",
                "code": "exam",
                "display": "Exam"
              }
            ],
            "text": "Exam"
          }
        ],
        "code": {
          "coding": [
            {
              "system": "http://snomed.info/sct"
            }
          ],
          "text": "Squinting"
        },
        "subject": {
          "reference": "Patient/4681de55-0088-47a8-9fca-0b7dd9f87d2f"
        },
        "encounter": {
          "reference": "Encounter/2cd95cf3-b0da-455b-9c75-63f3e7cf4da7"
        },
        "effectivePeriod": {
          "start": "2025-10-16"
        },
        "valueBoolean": true,
        "note": [
          {
            "text": "Definition: https://snomed.info/id/None"
          }
        ]
      },
      "request": {
        "method": "POST",
        "url": "Observation"
      }
    },
    {
      "fullUrl": "urn:uuid:f79fa9d5-ab57-4a71-b9c6-359b3cbe34ac",
      "resource": {
        "resourceType": "Observation",
        "id": "f79fa9d5-ab57-4a71-b9c6-359b3cbe34ac",
        "status": "final",
        "category": [
          {
            "coding": [
              {
                "system": "http://terminology.hl7.org/CodeSystem/observation-category",
                "code": "vital-signs",
                "display": "Vital Signs"
              }
            ],
            "text": "Vital Signs"
          }
        ],
        "code": {
          "coding": [
            {
              "system": "http://loinc.org",
              "code": "92998-4",
              "display": "Lower segment"
            }
          ],
          "text": "Height"
        },
        "subject": {
          "reference": "Patient/4681de55-0088-47a8-9fca-0b7dd9f87d2f"
        },
        "encounter": {
          "reference": "Encounter/2cd95cf3-b0da-455b-9c75-63f3e7cf4da7"
        },
        "effectiveDateTime": "2025-10-16",
        "interpretation": [
          {
            "coding": [
              {
                "system": "http://terminology.hl7.org/CodeSystem/v3-ObservationInterpretation",
                "code": "H",
                "display": "High"
              }
            ],
            "text": "High"
          }
        ]
      },
      "request": {
        "method": "POST",
        "url": "Observation"
      }
    },
    {
      "fullUrl": "urn:uuid:eed61522-2e4c-4d80-9ca0-8e0e1b6c8355",
      "resource": {
        "resourceType": "Observation",
        "id": "eed61522-2e4c-4d80-9ca0-8e0e1b6c8355",
        "status": "final",
        "category": [
          {
            "coding": [
              {
                "system": "http://terminology.hl7.org/CodeSystem/observation-category",
                "code": "vital-signs",
                "display": "Vital Signs"
              }
            ],
            "text": "Vital Signs"
          }
        ],
        "code": {
          "coding": [
            {
              "system": "http://loinc.org",
              "code": "97057-4",
              "display": "Body mass index"
            }
          ],
          "text": "Body mass index"
        },
        "subject": {
          "reference": "Patient/4681de55-0088-47a8-9fca-0b7dd9f87d2f"
        },
        "encounter": {
          "reference": "Encounter/2cd95cf3-b0da-455b-9c75-63f3e7cf4da7"
        },
        "effectiveDateTime": "2025-10-16",
        "interpretation": [
          {
            "coding": [
              {
                "system": "http://terminology.hl7.org/CodeSystem/v3-ObservationInterpretation",
                "code": "L",
                "display": "Low"
              }
            ],
            "text": "Low"
          }
        ]
      },
      "request": {
        "method": "POST",
        "url": "Observation"
      }
    },
    {
      "fullUrl": "urn:uuid:1d775432-1ac3-4125-9ad3-2f3b37480f1a",
      "resource": {
        "resourceType": "List",
        "id": "1d775432-1ac3-4125-9ad3-2f3b37480f1a",
        "contained": [
          {
            "resourceType": "FamilyMemberHistory",
            "id": "fmh-1",
            "status": "completed",
            "patient": {
              "reference": "Patient/4681de55-0088-47a8-9fca-0b7dd9f87d2f"
            },
            "relationship": {
              "coding": [
                {
                  "system": "http://snomed.info/sct",
                  "code": "70924004",
                  "display": "Brother"
                }
              ]
            },
            "deceasedBoolean": false,
            "condition": [
              {
                "code": {
                  "coding": [
                    {
                      "system": "http://snomed.info/sct",
                      "code": "432805000",
                      "display": "Suspected deep vein thrombosis"
                    }
                  ]
                }
              }
            ]
          }
        ],
        "status": "current",
        "mode": "snapshot",
        "code": {
          "coding": [
            {
              "system": "http://loinc.org",
              "code": "8670-2",
              "display": "History of family member diseases"
            }
          ]
        },
        "subject": [
          {
            "reference": "Patient/4681de55-0088-47a8-9fca-0b7dd9f87d2f"
          }
        ],
        "entry": [
          {
            "item": {
              "reference": "#fmh-1"
            }
          }
        ]
      },
      "request": {
        "method": "POST",
        "url": "FamilyMemberHistory"
      }
    }
  ]
}