{
  "resourceType": "Bundle",
  "type": "transaction",
  "entry": [
    {
      "fullUrl": "urn:uuid:f1c1bafe-87bc-40b7-a92a-4bbec701a8ad",
      "resource": {
        "resourceType": "Patient",
        "id": "f1c1bafe-87bc-40b7-a92a-4bbec701a8ad",
        "name": [
          {
            "family": "Thompson",
            "given": [
              "Lucas"
            ]
          }
        ],
        "gender": "male",
        "birthDate": "2015-01-01",
        "address": [
          {}
        ]
      },
      "request": {
        "method": "POST",
        "url": "Patient"
      }
    },
    {
      "fullUrl": "urn:uuid:b8503af3-6fbc-4660-9a12-c4e2cb2b8d15",
      "resource": {
        "resourceType": "Encounter",
        "id": "b8503af3-6fbc-4660-9a12-c4e2cb2b8d15",
        "identifier": [
          {
            "use": "temp",
            "value": "Encounter_Lucas Thompson_20251020132729"
          }
        ],
        "status": "completed",
        "priority": {
          "coding": [
            {
              "system": "http://snomed.info/sct",
              "code": "17621005",
              "display": "Normal"
            }
          ]
        },
        "type": [
          {
            "coding": [
              {
                "system": "http://snomed.info/sct",
                "code": "11429006",
                "display": "Consultation"
              }
            ]
          }
        ],
        "subject": {
          "reference": "Patient/f1c1bafe-87bc-40b7-a92a-4bbec701a8ad",
          "display": "Lucas Thompson"
        },
        "reason": [
          {
            "value": [
              {
                "concept": {
                  "text": "complaints of mild clumsiness and difficulty with fine motor tasks"
                }
              }
            ]
          }
        ]
      },
      "request": {
        "method": "POST",
        "url": "Encounter"
      }
    },
    {
      "fullUrl": "urn:uuid:bb14fb79-9692-43a4-b4d7-4f44c15c7719",
      "resource": {
        "resourceType": "Observation",
        "id": "bb14fb79-9692-43a4-b4d7-4f44c15c7719",
        "status": "final",
        "category": [
          {
            "coding": [
              {
                "system": "http://terminology.hl7.org/CodeSystem/observation-category",
                "code": "laboratory",
                "display": "Laboratory"
              }
            ],
            "text": "Laboratory"
          }
        ],
        "code": {
          "coding": [
            {
              "system": "http://loinc.org",
              "code": "2428-1",
              "display": "Hcys SerPl-mCnc"
            }
          ],
          "text": "Homocysteine"
        },
        "subject": {
          "reference": "Patient/f1c1bafe-87bc-40b7-a92a-4bbec701a8ad"
        },
        "encounter": {
          "reference": "Encounter/b8503af3-6fbc-4660-9a12-c4e2cb2b8d15"
        },
        "effectiveDateTime": "2025-10-16",
        "valueQuantity": {
          "value": 15.0,
          "unit": "µmol/L",
          "system": "http://unitsofmeasure.org",
          "code": "µmol/L"
        },
        "interpretation": [
          {
            "coding": [
              {
                "system": "http://terminology.hl7.org/CodeSystem/v3-ObservationInterpretation",
                "code": "H",
                "display": "High"
              }
            ]
          }
        ],
        "note": [
          {
            "text": "Definition: https://loinc.org/2428-1/"
          }
        ]
      },
      "request": {
        "method": "POST",
        "url": "Observation"
      }
    },
    {
      "fullUrl": "urn:uuid:d231ccd0-54f0-4a8b-ab23-60fbbe52c5e4",
      "resource": {
        "resourceType": "Observation",
        "id": "d231ccd0-54f0-4a8b-ab23-60fbbe52c5e4",
        "status": "final",
        "category": [
          {
            "coding": [
              {
                "system": "http://terminology.hl7.org/CodeSystem/observation-category",
                "code": "laboratory",
                "display": "Laboratory"
              }
            ],
            "text": "Laboratory"
          }
        ],
        "code": {
          "coding": [
            {
              "system": "http://loinc.org",
              "code": "2282-2",
              "display": "Folate Bld-mCnc"
            }
          ],
          "text": "Folate"
        },
        "subject": {
          "reference": "Patient/f1c1bafe-87bc-40b7-a92a-4bbec701a8ad"
        },
        "encounter": {
          "reference": "Encounter/b8503af3-6fbc-4660-9a12-c4e2cb2b8d15"
        },
        "effectiveDateTime": "2025-10-16",
        "interpretation": [
          {
            "coding": [
              {
                "system": "http://terminology.hl7.org/CodeSystem/v3-ObservationInterpretation",
                "code": "N",
                "display": "Normal"
              }
            ]
          }
        ],
        "note": [
          {
            "text": "Definition: https://loinc.org/2282-2/"
          }
        ]
      },
      "request": {
        "method": "POST",
        "url": "Observation"
      }
    },
    {
      "fullUrl": "urn:uuid:8db9901b-cef9-4e5d-b5a4-936069c17f46",
      "resource": {
        "resourceType": "Observation",
        "id": "8db9901b-cef9-4e5d-b5a4-936069c17f46",
        "status": "final",
        "category": [
          {
            "coding": [
              {
                "system": "http://terminology.hl7.org/CodeSystem/observation-category",
                "code": "laboratory",
                "display": "Laboratory"
              }
            ],
            "text": "Laboratory"
          }
        ],
        "code": {
          "coding": [
            {
              "system": "http://loinc.org",
              "code": "55885-8",
              "display": "Vit B12b Ur-mCnc"
            }
          ],
          "text": "Vitamin B12"
        },
        "subject": {
          "reference": "Patient/f1c1bafe-87bc-40b7-a92a-4bbec701a8ad"
        },
        "encounter": {
          "reference": "Encounter/b8503af3-6fbc-4660-9a12-c4e2cb2b8d15"
        },
        "effectiveDateTime": "2025-10-16",
        "interpretation": [
          {
            "coding": [
              {
                "system": "http://terminology.hl7.org/CodeSystem/v3-ObservationInterpretation",
                "code": "N",
                "display": "Normal"
              }
            ]
          }
        ],
        "note": [
          {
            "text": "Definition: https://loinc.org/55885-8/"
          }
        ]
      },
      "request": {
        "method": "POST",
        "url": "Observation"
      }
    },
    {
      "fullUrl": "urn:uuid:1c8c8e83-04b0-49e4-89f8-9c949df5f059",
      "resource": {
        "resourceType": "Observation",
        "id": "1c8c8e83-04b0-49e4-89f8-9c949df5f059",
        "status": "final",
        "category": [
          {
            "coding": [
              {
                "system": "http://terminology.hl7.org/CodeSystem/observation-category",
                "code": "exam",
                "display": "Exam"
              }
            ],
            "text": "Exam"
          }
        ],
        "code": {
          "coding": [
            {
              "system": "http://snomed.info/sct",
              "code": "7006003",
              "display": "Clumsiness"
            }
          ],
          "text": "Clumsiness"
        },
        "subject": {
          "reference": "Patient/f1c1bafe-87bc-40b7-a92a-4bbec701a8ad"
        },
        "encounter": {
          "reference": "Encounter/b8503af3-6fbc-4660-9a12-c4e2cb2b8d15"
        },
        "effectivePeriod": {
          "start": "2025-10-16"
        },
        "valueBoolean": true,
        "note": [
          {
            "text": "Definition: https://snomed.info/id/7006003"
          }
        ]
      },
      "request": {
        "method": "POST",
        "url": "Observation"
      }
    },
    {
      "fullUrl": "urn:uuid:ffe53ded-ec59-413b-a026-1ab8de4ba3dc",
      "resource": {
        "resourceType": "Observation",
        "id": "ffe53ded-ec59-413b-a026-1ab8de4ba3dc",
        "status": "final",
        "category": [
          {
            "coding": [
              {
                "system": "http://terminology.hl7.org/CodeSystem/observation-category",
                "code": "exam",
                "display": "Exam"
              }
            ],
            "text": "Exam"
          }
        ],
        "code": {
          "coding": [
            {
              "system": "http://snomed.info/sct",
              "code": "1305003",
              "display": "Double"
            }
          ],
          "text": "Double vision"
        },
        "subject": {
          "reference": "Patient/f1c1bafe-87bc-40b7-a92a-4bbec701a8ad"
        },
        "encounter": {
          "reference": "Encounter/b8503af3-6fbc-4660-9a12-c4e2cb2b8d15"
        },
        "effectivePeriod": {
          "start": "2025-10-16"
        },
        "valueBoolean": true,
        "note": [
          {
            "text": "Definition: https://snomed.info/id/1305003"
          }
        ]
      },
      "request": {
        "method": "POST",
        "url": "Observation"
      }
    },
    {
      "fullUrl": "urn:uuid:3601012e-e248-4b4f-b7c0-59d60aae43a3",
      "resource": {
        "resourceType": "Observation",
        "id": "3601012e-e248-4b4f-b7c0-59d60aae43a3",
        "status": "final",
        "category": [
          {
            "coding": [
              {
                "system": "http://terminology.hl7.org/CodeSystem/observation-category",
                "code": "exam",
                "display": "Exam"
              }
            ],
            "text": "Exam"
          }
        ],
        "code": {
          "coding": [
            {
              "system": "http://snomed.info/sct",
              "code": "438562002",
              "display": "Reconstruction of dislocating patella with patellectomy"
            }
          ],
          "text": "Dislocating shoulder"
        },
        "subject": {
          "reference": "Patient/f1c1bafe-87bc-40b7-a92a-4bbec701a8ad"
        },
        "encounter": {
          "reference": "Encounter/b8503af3-6fbc-4660-9a12-c4e2cb2b8d15"
        },
        "effectivePeriod": {
          "start": "2025-10-16"
        },
        "valueBoolean": true,
        "note": [
          {
            "text": "Definition: https://snomed.info/id/438562002"
          }
        ]
      },
      "request": {
        "method": "POST",
        "url": "Observation"
      }
    },
    {
      "fullUrl": "urn:uuid:74113f17-3cad-4120-82b0-96d72659961b",
      "resource": {
        "resourceType": "Observation",
        "id": "74113f17-3cad-4120-82b0-96d72659961b",
        "status": "final",
        "category": [
          {
            "coding": [
              {
                "system": "http://terminology.hl7.org/CodeSystem/observation-category",
                "code": "vital-signs",
                "display": "Vital Signs"
              }
            ],
            "text": "Vital Signs"
          }
        ],
        "code": {
          "coding": [
            {
              "system": "http://loinc.org",
              "code": "8310-5",
              "display": "Body temperature"
            }
          ],
          "text": "temperature"
        },
        "subject": {
          "reference": "Patient/f1c1bafe-87bc-40b7-a92a-4bbec701a8ad"
        },
        "encounter": {
          "reference": "Encounter/b8503af3-6fbc-4660-9a12-c4e2cb2b8d15"
        },
        "effectiveDateTime": "2025-10-16",
        "valueQuantity": {
          "value": 98.6,
          "unit": "°F",
          "system": "http://unitsofmeasure.org",
          "code": "°F"
        },
        "interpretation": [
          {
            "coding": [
              {
                "system": "http://terminology.hl7.org/CodeSystem/v3-ObservationInterpretation",
                "code": "N",
                "display": "Normal"
              }
            ],
            "text": "Normal"
          }
        ]
      },
      "request": {
        "method": "POST",
        "url": "Observation"
      }
    },
    {
      "fullUrl": "urn:uuid:0877c84d-0287-4892-b099-920d5e7ce880",
      "resource": {
        "resourceType": "Observation",
        "id": "0877c84d-0287-4892-b099-920d5e7ce880",
        "status": "final",
        "category": [
          {
            "coding": [
              {
                "system": "http://terminology.hl7.org/CodeSystem/observation-category",
                "code": "vital-signs",
                "display": "Vital Signs"
              }
            ],
            "text": "Vital Signs"
          }
        ],
        "code": {
          "coding": [
            {
              "system": "http://loinc.org",
              "code": "8337-8",
              "display": "Bdy weight special circumstances"
            }
          ],
          "text": "weight"
        },
        "subject": {
          "reference": "Patient/f1c1bafe-87bc-40b7-a92a-4bbec701a8ad"
        },
        "encounter": {
          "reference": "Encounter/b8503af3-6fbc-4660-9a12-c4e2cb2b8d15"
        },
        "effectiveDateTime": "2025-10-16",
        "valueQuantity": {
          "value": 32.0,
          "unit": "kg",
          "system": "http://unitsofmeasure.org",
          "code": "kg"
        },
        "interpretation": [
          {
            "coding": [
              {
                "system": "http://terminology.hl7.org/CodeSystem/v3-ObservationInterpretation",
                "code": "N",
                "display": "Normal"
              }
            ],
            "text": "Normal"
          }
        ]
      },
      "request": {
        "method": "POST",
        "url": "Observation"
      }
    },
    {
      "fullUrl": "urn:uuid:df373c27-ea8d-4dea-98a1-00645707a0db",
      "resource": {
        "resourceType": "Observation",
        "id": "df373c27-ea8d-4dea-98a1-00645707a0db",
        "status": "final",
        "category": [
          {
            "coding": [
              {
                "system": "http://terminology.hl7.org/CodeSystem/observation-category",
                "code": "vital-signs",
                "display": "Vital Signs"
              }
            ],
            "text": "Vital Signs"
          }
        ],
        "code": {
          "coding": [
            {
              "system": "http://loinc.org",
              "code": "92998-4",
              "display": "Lower segment"
            }
          ],
          "text": "height"
        },
        "subject": {
          "reference": "Patient/f1c1bafe-87bc-40b7-a92a-4bbec701a8ad"
        },
        "encounter": {
          "reference": "Encounter/b8503af3-6fbc-4660-9a12-c4e2cb2b8d15"
        },
        "effectiveDateTime": "2025-10-16",
        "valueQuantity": {
          "value": 140.0,
          "unit": "cm",
          "system": "http://unitsofmeasure.org",
          "code": "cm"
        },
        "interpretation": [
          {
            "coding": [
              {
                "system": "http://terminology.hl7.org/CodeSystem/v3-ObservationInterpretation",
                "code": "N",
                "display": "Normal"
              }
            ],
            "text": "Normal"
          }
        ]
      },
      "request": {
        "method": "POST",
        "url": "Observation"
      }
    },
    {
      "fullUrl": "urn:uuid:bf2776f9-444e-4403-b129-302269e6434d",
      "resource": {
        "resourceType": "Observation",
        "id": "bf2776f9-444e-4403-b129-302269e6434d",
        "status": "final",
        "category": [
          {
            "coding": [
              {
                "system": "http://terminology.hl7.org/CodeSystem/observation-category",
                "code": "vital-signs",
                "display": "Vital Signs"
              }
            ],
            "text": "Vital Signs"
          }
        ],
        "code": {
          "coding": [
            {
              "system": "http://loinc.org",
              "code": "97057-4",
              "display": "Body mass index"
            }
          ],
          "text": "body mass index"
        },
        "subject": {
          "reference": "Patient/f1c1bafe-87bc-40b7-a92a-4bbec701a8ad"
        },
        "encounter": {
          "reference": "Encounter/b8503af3-6fbc-4660-9a12-c4e2cb2b8d15"
        },
        "effectiveDateTime": "2025-10-16",
        "interpretation": [
          {
            "coding": [
              {
                "system": "http://terminology.hl7.org/CodeSystem/v3-ObservationInterpretation",
                "code": "N",
                "display": "Normal"
              }
            ],
            "text": "Normal"
          }
        ]
      },
      "request": {
        "method": "POST",
        "url": "Observation"
      }
    },
    {
      "fullUrl": "urn:uuid:c3509f3c-87cb-4f3b-933b-a5a3ab200ffa",
      "resource": {
        "resourceType": "Observation",
        "id": "c3509f3c-87cb-4f3b-933b-a5a3ab200ffa",
        "status": "final",
        "category": [
          {
            "coding": [
              {
                "system": "http://terminology.hl7.org/CodeSystem/observation-category",
                "code": "vital-signs",
                "display": "Vital Signs"
              }
            ],
            "text": "Vital Signs"
          }
        ],
        "code": {
          "coding": [
            {
              "system": "http://loinc.org",
              "code": "2717-7",
              "display": "OxyHgb MFr Plas"
            }
          ],
          "text": "oxygen saturation"
        },
        "subject": {
          "reference": "Patient/f1c1bafe-87bc-40b7-a92a-4bbec701a8ad"
        },
        "encounter": {
          "reference": "Encounter/b8503af3-6fbc-4660-9a12-c4e2cb2b8d15"
        },
        "effectiveDateTime": "2025-10-16",
        "valueQuantity": {
          "value": 98.0,
          "unit": "%",
          "system": "http://unitsofmeasure.org",
          "code": "%"
        },
        "interpretation": [
          {
            "coding": [
              {
                "system": "http://terminology.hl7.org/CodeSystem/v3-ObservationInterpretation",
                "code": "N",
                "display": "Normal"
              }
            ],
            "text": "Normal"
          }
        ]
      },
      "request": {
        "method": "POST",
        "url": "Observation"
      }
    },
    {
      "fullUrl": "urn:uuid:9333d4ae-75fb-48ee-b0b1-bc77d4ca38e1",
      "resource": {
        "resourceType": "MedicationStatement",
        "id": "9333d4ae-75fb-48ee-b0b1-bc77d4ca38e1",
        "status": "recorded",
        "medication": {
          "concept": {
            "coding": [
              {
                "system": "http://snomed.info/sct",
                "code": "412250002",
                "display": "Multivitamin agent"
              }
            ],
            "text": "Multivitamin"
          }
        },
        "subject": {
          "reference": "Patient/f1c1bafe-87bc-40b7-a92a-4bbec701a8ad"
        },
        "encounter": {
          "reference": "Encounter/b8503af3-6fbc-4660-9a12-c4e2cb2b8d15"
        },
        "effectiveDateTime": "2025-10-16",
        "informationSource": [
          {
            "reference": "Patient/f1c1bafe-87bc-40b7-a92a-4bbec701a8ad"
          }
        ],
        "dosage": [
          {
            "text": "daily",
            "timing": {
              "repeat": {
                "frequency": 1,
                "period": 1.0,
                "periodUnit": "d"
              }
            }
          }
        ],
        "adherence": {
          "code": {
            "coding": [
              {
                "system": "http://hl7.org/fhir/CodeSystem/medication-statement-adherence",
                "code": "taking",
                "display": "Taking"
              }
            ]
          }
        }
      },
      "request": {
        "method": "POST",
        "url": "MedicationStatement"
      }
    },
    {
      "fullUrl": "urn:uuid:e5e74c25-9c03-44d0-a00e-97bda111d010",
      "resource": {
        "resourceType": "Encounter",
        "id": "e5e74c25-9c03-44d0-a00e-97bda111d010",
        "identifier": [
          {
            "use": "temp",
            "value": "Encounter_Lucas Thompson_20251020132740"
          }
        ],
        "status": "completed",
        "priority": {
          "coding": [
            {
              "system": "http://snomed.info/sct",
              "code": "17621005",
              "display": "Normal"
            }
          ]
        },
        "type": [
          {
            "coding": [
              {
                "system": "http://snomed.info/sct",
                "code": "11429006",
                "display": "Consultation"
              }
            ]
          }
        ],
        "subject": {
          "reference": "Patient/f1c1bafe-87bc-40b7-a92a-4bbec701a8ad",
          "display": "Lucas Thompson"
        }
      },
      "request": {
        "method": "POST",
        "url": "Encounter"
      }
    },
    {
      "fullUrl": "urn:uuid:c759c593-f8fd-4446-8654-ca8510deb2a2",
      "resource": {
        "resourceType": "List",
        "id": "c759c593-f8fd-4446-8654-ca8510deb2a2",
        "contained": [
          {
            "resourceType": "FamilyMemberHistory",
            "id": "fmh-2",
            "status": "completed",
            "patient": {
              "reference": "Patient/f1c1bafe-87bc-40b7-a92a-4bbec701a8ad"
            },
            "relationship": {
              "coding": [
                {
                  "system": "http://snomed.info/sct",
                  "code": "66839005",
                  "display": "Father"
                }
              ]
            },
            "deceasedBoolean": false,
            "condition": [
              {
                "code": {
                  "coding": [
                    {
                      "system": "http://snomed.info/sct",
                      "code": "405495005",
                      "display": "High airway pressure"
                    }
                  ]
                }
              }
            ]
          }
        ],
        "status": "current",
        "mode": "snapshot",
        "code": {
          "coding": [
            {
              "system": "http://loinc.org",
              "code": "8670-2",
              "display": "History of family member diseases"
            }
          ]
        },
        "subject": [
          {
            "reference": "Patient/f1c1bafe-87bc-40b7-a92a-4bbec701a8ad"
          }
        ],
        "note": [
          {
            "text": "Both parents are alive and healthy otherwise"
          }
        ],
        "entry": [
          {
            "item": {
              "reference": "#fmh-2"
            }
          }
        ]
      },
      "request": {
        "method": "POST",
        "url": "FamilyMemberHistory"
      }
    }
  ]
}