{
  "resourceType": "Bundle",
  "type": "transaction",
  "entry": [
    {
      "fullUrl": "urn:uuid:7c5e9d31-b4fe-4449-a044-8a91ebc368db",
      "resource": {
        "resourceType": "Patient",
        "id": "7c5e9d31-b4fe-4449-a044-8a91ebc368db",
        "name": [
          {
            "family": "Brooks",
            "given": [
              "Lucas"
            ]
          }
        ],
        "gender": "male",
        "birthDate": "2015-01-01",
        "address": [
          {}
        ]
      },
      "request": {
        "method": "POST",
        "url": "Patient"
      }
    },
    {
      "fullUrl": "urn:uuid:15146d33-0ce9-4d02-a37d-aee883563b0a",
      "resource": {
        "resourceType": "Encounter",
        "id": "15146d33-0ce9-4d02-a37d-aee883563b0a",
        "identifier": [
          {
            "use": "temp",
            "value": "Encounter_Lucas Brooks_20251020132709"
          }
        ],
        "status": "completed",
        "priority": {
          "coding": [
            {
              "system": "http://snomed.info/sct",
              "code": "17621005",
              "display": "Normal"
            }
          ]
        },
        "type": [
          {
            "coding": [
              {
                "system": "http://snomed.info/sct",
                "code": "11429006",
                "display": "Consultation"
              }
            ]
          }
        ],
        "subject": {
          "reference": "Patient/7c5e9d31-b4fe-4449-a044-8a91ebc368db",
          "display": "Lucas Brooks"
        },
        "reason": [
          {
            "value": [
              {
                "concept": {
                  "text": "complaints of mild clumsiness and difficulty with fine motor tasks"
                }
              }
            ]
          }
        ]
      },
      "request": {
        "method": "POST",
        "url": "Encounter"
      }
    },
    {
      "fullUrl": "urn:uuid:b39dcfcc-d227-437a-83a2-c5be283b6750",
      "resource": {
        "resourceType": "Observation",
        "id": "b39dcfcc-d227-437a-83a2-c5be283b6750",
        "status": "final",
        "category": [
          {
            "coding": [
              {
                "system": "http://terminology.hl7.org/CodeSystem/observation-category",
                "code": "laboratory",
                "display": "Laboratory"
              }
            ],
            "text": "Laboratory"
          }
        ],
        "code": {
          "coding": [
            {
              "system": "http://loinc.org",
              "code": "2428-1",
              "display": "Hcys SerPl-mCnc"
            }
          ],
          "text": "Homocysteine"
        },
        "subject": {
          "reference": "Patient/7c5e9d31-b4fe-4449-a044-8a91ebc368db"
        },
        "encounter": {
          "reference": "Encounter/15146d33-0ce9-4d02-a37d-aee883563b0a"
        },
        "effectiveDateTime": "2025-10-16",
        "valueQuantity": {
          "value": 15.6,
          "unit": "μmol/L",
          "system": "http://unitsofmeasure.org",
          "code": "μmol/L"
        },
        "interpretation": [
          {
            "coding": [
              {
                "system": "http://terminology.hl7.org/CodeSystem/v3-ObservationInterpretation",
                "code": "H",
                "display": "High"
              }
            ]
          }
        ],
        "note": [
          {
            "text": "Definition: https://loinc.org/2428-1/"
          }
        ]
      },
      "request": {
        "method": "POST",
        "url": "Observation"
      }
    },
    {
      "fullUrl": "urn:uuid:4e31f585-d47c-4de2-a5e1-468daa5e7f09",
      "resource": {
        "resourceType": "Observation",
        "id": "4e31f585-d47c-4de2-a5e1-468daa5e7f09",
        "status": "final",
        "category": [
          {
            "coding": [
              {
                "system": "http://terminology.hl7.org/CodeSystem/observation-category",
                "code": "laboratory",
                "display": "Laboratory"
              }
            ],
            "text": "Laboratory"
          }
        ],
        "code": {
          "coding": [
            {
              "system": "http://loinc.org",
              "code": "2623-7",
              "display": "Methionine Ur-mCnc"
            }
          ],
          "text": "Methionine"
        },
        "subject": {
          "reference": "Patient/7c5e9d31-b4fe-4449-a044-8a91ebc368db"
        },
        "encounter": {
          "reference": "Encounter/15146d33-0ce9-4d02-a37d-aee883563b0a"
        },
        "effectiveDateTime": "2025-10-16",
        "valueQuantity": {
          "value": 25.0,
          "unit": "μmol/L",
          "system": "http://unitsofmeasure.org",
          "code": "μmol/L"
        },
        "note": [
          {
            "text": "Definition: https://loinc.org/2623-7/"
          }
        ]
      },
      "request": {
        "method": "POST",
        "url": "Observation"
      }
    },
    {
      "fullUrl": "urn:uuid:e7db1944-4d17-4eb1-aa9d-6bb48a242572",
      "resource": {
        "resourceType": "Observation",
        "id": "e7db1944-4d17-4eb1-aa9d-6bb48a242572",
        "status": "final",
        "category": [
          {
            "coding": [
              {
                "system": "http://terminology.hl7.org/CodeSystem/observation-category",
                "code": "laboratory",
                "display": "Laboratory"
              }
            ],
            "text": "Laboratory"
          }
        ],
        "code": {
          "coding": [
            {
              "system": "http://loinc.org",
              "code": "58410-2",
              "display": "Complete blood count panel"
            }
          ],
          "text": "Complete Blood Count"
        },
        "subject": {
          "reference": "Patient/7c5e9d31-b4fe-4449-a044-8a91ebc368db"
        },
        "encounter": {
          "reference": "Encounter/15146d33-0ce9-4d02-a37d-aee883563b0a"
        },
        "effectiveDateTime": "2025-10-16",
        "interpretation": [
          {
            "coding": [
              {
                "system": "http://terminology.hl7.org/CodeSystem/v3-ObservationInterpretation",
                "code": "N",
                "display": "Normal"
              }
            ]
          }
        ],
        "note": [
          {
            "text": "Definition: https://loinc.org/58410-2/"
          }
        ]
      },
      "request": {
        "method": "POST",
        "url": "Observation"
      }
    },
    {
      "fullUrl": "urn:uuid:abf18ecd-5ed9-43f8-8f10-222875f0030b",
      "resource": {
        "resourceType": "Observation",
        "id": "abf18ecd-5ed9-43f8-8f10-222875f0030b",
        "status": "final",
        "category": [
          {
            "coding": [
              {
                "system": "http://terminology.hl7.org/CodeSystem/observation-category",
                "code": "laboratory",
                "display": "Laboratory"
              }
            ],
            "text": "Laboratory"
          }
        ],
        "code": {
          "coding": [
            {
              "system": "http://loinc.org",
              "code": "24338-6",
              "display": "Gas panel"
            }
          ],
          "text": "Blood Chemistry"
        },
        "subject": {
          "reference": "Patient/7c5e9d31-b4fe-4449-a044-8a91ebc368db"
        },
        "encounter": {
          "reference": "Encounter/15146d33-0ce9-4d02-a37d-aee883563b0a"
        },
        "effectiveDateTime": "2025-10-16",
        "interpretation": [
          {
            "coding": [
              {
                "system": "http://terminology.hl7.org/CodeSystem/v3-ObservationInterpretation",
                "code": "N",
                "display": "Normal"
              }
            ]
          }
        ],
        "note": [
          {
            "text": "Definition: https://loinc.org/24338-6/"
          }
        ]
      },
      "request": {
        "method": "POST",
        "url": "Observation"
      }
    },
    {
      "fullUrl": "urn:uuid:a2c54788-14e7-487c-879b-07d217f4f9ab",
      "resource": {
        "resourceType": "Observation",
        "id": "a2c54788-14e7-487c-879b-07d217f4f9ab",
        "status": "final",
        "category": [
          {
            "coding": [
              {
                "system": "http://terminology.hl7.org/CodeSystem/observation-category",
                "code": "exam",
                "display": "Exam"
              }
            ],
            "text": "Exam"
          }
        ],
        "code": {
          "coding": [
            {
              "system": "http://snomed.info/sct",
              "code": "7006003",
              "display": "Clumsiness"
            }
          ],
          "text": "Clumsiness"
        },
        "subject": {
          "reference": "Patient/7c5e9d31-b4fe-4449-a044-8a91ebc368db"
        },
        "encounter": {
          "reference": "Encounter/15146d33-0ce9-4d02-a37d-aee883563b0a"
        },
        "effectivePeriod": {
          "start": "2025-10-16"
        },
        "valueBoolean": true,
        "interpretation": [
          {
            "coding": [
              {
                "system": "http://terminology.hl7.org/CodeSystem/v3-ObservationInterpretation",
                "code": "A",
                "display": "Abnormal"
              }
            ],
            "text": "Abnormal"
          }
        ],
        "note": [
          {
            "text": "Definition: https://snomed.info/id/7006003"
          }
        ]
      },
      "request": {
        "method": "POST",
        "url": "Observation"
      }
    },
    {
      "fullUrl": "urn:uuid:e66145e8-dba8-452c-bbb2-019e5d5613cf",
      "resource": {
        "resourceType": "Observation",
        "id": "e66145e8-dba8-452c-bbb2-019e5d5613cf",
        "status": "final",
        "category": [
          {
            "coding": [
              {
                "system": "http://terminology.hl7.org/CodeSystem/observation-category",
                "code": "exam",
                "display": "Exam"
              }
            ],
            "text": "Exam"
          }
        ],
        "code": {
          "coding": [
            {
              "system": "http://snomed.info/sct",
              "code": "1305003",
              "display": "Double"
            }
          ],
          "text": "Double Vision"
        },
        "subject": {
          "reference": "Patient/7c5e9d31-b4fe-4449-a044-8a91ebc368db"
        },
        "encounter": {
          "reference": "Encounter/15146d33-0ce9-4d02-a37d-aee883563b0a"
        },
        "effectivePeriod": {
          "start": "2025-10-16"
        },
        "valueBoolean": true,
        "interpretation": [
          {
            "coding": [
              {
                "system": "http://terminology.hl7.org/CodeSystem/v3-ObservationInterpretation",
                "code": "A",
                "display": "Abnormal"
              }
            ],
            "text": "Abnormal"
          }
        ],
        "note": [
          {
            "text": "Definition: https://snomed.info/id/1305003"
          }
        ]
      },
      "request": {
        "method": "POST",
        "url": "Observation"
      }
    },
    {
      "fullUrl": "urn:uuid:f1010409-b000-40ca-8e9b-a86af0ebe7ba",
      "resource": {
        "resourceType": "Observation",
        "id": "f1010409-b000-40ca-8e9b-a86af0ebe7ba",
        "status": "final",
        "category": [
          {
            "coding": [
              {
                "system": "http://terminology.hl7.org/CodeSystem/observation-category",
                "code": "exam",
                "display": "Exam"
              }
            ],
            "text": "Exam"
          }
        ],
        "code": {
          "coding": [
            {
              "system": "http://snomed.info/sct",
              "code": "72436007",
              "display": "Blurred disc margin"
            }
          ],
          "text": "Blurred Vision"
        },
        "subject": {
          "reference": "Patient/7c5e9d31-b4fe-4449-a044-8a91ebc368db"
        },
        "encounter": {
          "reference": "Encounter/15146d33-0ce9-4d02-a37d-aee883563b0a"
        },
        "effectivePeriod": {
          "start": "2025-10-16"
        },
        "valueBoolean": true,
        "interpretation": [
          {
            "coding": [
              {
                "system": "http://terminology.hl7.org/CodeSystem/v3-ObservationInterpretation",
                "code": "A",
                "display": "Abnormal"
              }
            ],
            "text": "Abnormal"
          }
        ],
        "note": [
          {
            "text": "Definition: https://snomed.info/id/72436007"
          }
        ]
      },
      "request": {
        "method": "POST",
        "url": "Observation"
      }
    },
    {
      "fullUrl": "urn:uuid:f7a5ed62-6642-43d1-b6a6-91ee52c12d8a",
      "resource": {
        "resourceType": "Observation",
        "id": "f7a5ed62-6642-43d1-b6a6-91ee52c12d8a",
        "status": "final",
        "category": [
          {
            "coding": [
              {
                "system": "http://terminology.hl7.org/CodeSystem/observation-category",
                "code": "vital-signs",
                "display": "Vital Signs"
              }
            ],
            "text": "Vital Signs"
          }
        ],
        "code": {
          "coding": [
            {
              "system": "http://loinc.org",
              "code": "8310-5",
              "display": "Body temperature"
            }
          ],
          "text": "temperature"
        },
        "subject": {
          "reference": "Patient/7c5e9d31-b4fe-4449-a044-8a91ebc368db"
        },
        "encounter": {
          "reference": "Encounter/15146d33-0ce9-4d02-a37d-aee883563b0a"
        },
        "effectiveDateTime": "2025-10-16",
        "valueQuantity": {
          "value": 98.6,
          "unit": "°F",
          "system": "http://unitsofmeasure.org",
          "code": "°F"
        },
        "interpretation": [
          {
            "coding": [
              {
                "system": "http://terminology.hl7.org/CodeSystem/v3-ObservationInterpretation",
                "code": "N",
                "display": "Normal"
              }
            ],
            "text": "Normal"
          }
        ]
      },
      "request": {
        "method": "POST",
        "url": "Observation"
      }
    },
    {
      "fullUrl": "urn:uuid:f160da00-db0d-4faf-8d56-906bd4552cf7",
      "resource": {
        "resourceType": "Observation",
        "id": "f160da00-db0d-4faf-8d56-906bd4552cf7",
        "status": "final",
        "category": [
          {
            "coding": [
              {
                "system": "http://terminology.hl7.org/CodeSystem/observation-category",
                "code": "vital-signs",
                "display": "Vital Signs"
              }
            ],
            "text": "Vital Signs"
          }
        ],
        "code": {
          "coding": [
            {
              "system": "http://loinc.org",
              "code": "8337-8",
              "display": "Bdy weight special circumstances"
            }
          ],
          "text": "weight"
        },
        "subject": {
          "reference": "Patient/7c5e9d31-b4fe-4449-a044-8a91ebc368db"
        },
        "encounter": {
          "reference": "Encounter/15146d33-0ce9-4d02-a37d-aee883563b0a"
        },
        "effectiveDateTime": "2025-10-16",
        "valueQuantity": {
          "value": 32.0,
          "unit": "kg",
          "system": "http://unitsofmeasure.org",
          "code": "kg"
        },
        "interpretation": [
          {
            "coding": [
              {
                "system": "http://terminology.hl7.org/CodeSystem/v3-ObservationInterpretation",
                "code": "N",
                "display": "Normal"
              }
            ],
            "text": "Normal"
          }
        ]
      },
      "request": {
        "method": "POST",
        "url": "Observation"
      }
    },
    {
      "fullUrl": "urn:uuid:5f03e7d5-27f3-46d1-84de-18d8c923d4ce",
      "resource": {
        "resourceType": "Observation",
        "id": "5f03e7d5-27f3-46d1-84de-18d8c923d4ce",
        "status": "final",
        "category": [
          {
            "coding": [
              {
                "system": "http://terminology.hl7.org/CodeSystem/observation-category",
                "code": "vital-signs",
                "display": "Vital Signs"
              }
            ],
            "text": "Vital Signs"
          }
        ],
        "code": {
          "coding": [
            {
              "system": "http://loinc.org",
              "code": "92998-4",
              "display": "Lower segment"
            }
          ],
          "text": "height"
        },
        "subject": {
          "reference": "Patient/7c5e9d31-b4fe-4449-a044-8a91ebc368db"
        },
        "encounter": {
          "reference": "Encounter/15146d33-0ce9-4d02-a37d-aee883563b0a"
        },
        "effectiveDateTime": "2025-10-16",
        "valueQuantity": {
          "value": 140.0,
          "unit": "cm",
          "system": "http://unitsofmeasure.org",
          "code": "cm"
        },
        "interpretation": [
          {
            "coding": [
              {
                "system": "http://terminology.hl7.org/CodeSystem/v3-ObservationInterpretation",
                "code": "N",
                "display": "Normal"
              }
            ],
            "text": "Normal"
          }
        ]
      },
      "request": {
        "method": "POST",
        "url": "Observation"
      }
    },
    {
      "fullUrl": "urn:uuid:d8e5e85d-cc63-47eb-b5e0-135896b8662d",
      "resource": {
        "resourceType": "Observation",
        "id": "d8e5e85d-cc63-47eb-b5e0-135896b8662d",
        "status": "final",
        "category": [
          {
            "coding": [
              {
                "system": "http://terminology.hl7.org/CodeSystem/observation-category",
                "code": "vital-signs",
                "display": "Vital Signs"
              }
            ],
            "text": "Vital Signs"
          }
        ],
        "code": {
          "coding": [
            {
              "system": "http://loinc.org",
              "code": "107102-6",
              "display": "BMI formula"
            }
          ],
          "text": "BMI"
        },
        "subject": {
          "reference": "Patient/7c5e9d31-b4fe-4449-a044-8a91ebc368db"
        },
        "encounter": {
          "reference": "Encounter/15146d33-0ce9-4d02-a37d-aee883563b0a"
        },
        "effectiveDateTime": "2025-10-16",
        "interpretation": [
          {
            "coding": [
              {
                "system": "http://terminology.hl7.org/CodeSystem/v3-ObservationInterpretation",
                "code": "N",
                "display": "Normal"
              }
            ],
            "text": "Normal"
          }
        ]
      },
      "request": {
        "method": "POST",
        "url": "Observation"
      }
    },
    {
      "fullUrl": "urn:uuid:89bc56f1-6744-4796-880f-ef93943a58d6",
      "resource": {
        "resourceType": "Observation",
        "id": "89bc56f1-6744-4796-880f-ef93943a58d6",
        "status": "final",
        "category": [
          {
            "coding": [
              {
                "system": "http://terminology.hl7.org/CodeSystem/observation-category",
                "code": "vital-signs",
                "display": "Vital Signs"
              }
            ],
            "text": "Vital Signs"
          }
        ],
        "code": {
          "coding": [
            {
              "system": "http://loinc.org",
              "code": "11753-1",
              "display": "EFW from AC+HC"
            }
          ],
          "text": "head_circumference"
        },
        "subject": {
          "reference": "Patient/7c5e9d31-b4fe-4449-a044-8a91ebc368db"
        },
        "encounter": {
          "reference": "Encounter/15146d33-0ce9-4d02-a37d-aee883563b0a"
        },
        "effectiveDateTime": "2025-10-16",
        "valueQuantity": {
          "value": 55.0,
          "unit": "cm",
          "system": "http://unitsofmeasure.org",
          "code": "cm"
        },
        "interpretation": [
          {
            "coding": [
              {
                "system": "http://terminology.hl7.org/CodeSystem/v3-ObservationInterpretation",
                "code": "H",
                "display": "High"
              }
            ],
            "text": "High"
          }
        ]
      },
      "request": {
        "method": "POST",
        "url": "Observation"
      }
    },
    {
      "fullUrl": "urn:uuid:d95942e9-ab22-42c9-bb4b-3ca356594e07",
      "resource": {
        "resourceType": "Observation",
        "id": "d95942e9-ab22-42c9-bb4b-3ca356594e07",
        "status": "final",
        "category": [
          {
            "coding": [
              {
                "system": "http://terminology.hl7.org/CodeSystem/observation-category",
                "code": "vital-signs",
                "display": "Vital Signs"
              }
            ],
            "text": "Vital Signs"
          }
        ],
        "code": {
          "coding": [
            {
              "system": "http://loinc.org",
              "code": "2717-7",
              "display": "OxyHgb MFr Plas"
            }
          ],
          "text": "oxygen_saturation"
        },
        "subject": {
          "reference": "Patient/7c5e9d31-b4fe-4449-a044-8a91ebc368db"
        },
        "encounter": {
          "reference": "Encounter/15146d33-0ce9-4d02-a37d-aee883563b0a"
        },
        "effectiveDateTime": "2025-10-16",
        "valueQuantity": {
          "value": 98.0,
          "unit": "%",
          "system": "http://unitsofmeasure.org",
          "code": "%"
        },
        "interpretation": [
          {
            "coding": [
              {
                "system": "http://terminology.hl7.org/CodeSystem/v3-ObservationInterpretation",
                "code": "N",
                "display": "Normal"
              }
            ],
            "text": "Normal"
          }
        ]
      },
      "request": {
        "method": "POST",
        "url": "Observation"
      }
    },
    {
      "fullUrl": "urn:uuid:6b1f2f99-cd1a-4ba3-b579-73f9bd6b401b",
      "resource": {
        "resourceType": "Encounter",
        "id": "6b1f2f99-cd1a-4ba3-b579-73f9bd6b401b",
        "identifier": [
          {
            "use": "temp",
            "value": "Encounter_Lucas Brooks_20251020132718"
          }
        ],
        "status": "completed",
        "priority": {
          "coding": [
            {
              "system": "http://snomed.info/sct",
              "code": "17621005",
              "display": "Normal"
            }
          ]
        },
        "type": [
          {
            "coding": [
              {
                "system": "http://snomed.info/sct",
                "code": "11429006",
                "display": "Consultation"
              }
            ]
          }
        ],
        "subject": {
          "reference": "Patient/7c5e9d31-b4fe-4449-a044-8a91ebc368db",
          "display": "Lucas Brooks"
        }
      },
      "request": {
        "method": "POST",
        "url": "Encounter"
      }
    },
    {
      "fullUrl": "urn:uuid:69b11111-7e85-47fa-b4f6-20104cfee0f7",
      "resource": {
        "resourceType": "List",
        "id": "69b11111-7e85-47fa-b4f6-20104cfee0f7",
        "contained": [
          {
            "resourceType": "FamilyMemberHistory",
            "id": "fmh-4",
            "status": "completed",
            "patient": {
              "reference": "Patient/7c5e9d31-b4fe-4449-a044-8a91ebc368db"
            },
            "relationship": {
              "coding": [
                {
                  "system": "http://snomed.info/sct",
                  "code": "66839005",
                  "display": "Father"
                }
              ]
            },
            "deceasedBoolean": false,
            "condition": []
          }
        ],
        "status": "current",
        "mode": "snapshot",
        "code": {
          "coding": [
            {
              "system": "http://loinc.org",
              "code": "8670-2",
              "display": "History of family member diseases"
            }
          ]
        },
        "subject": [
          {
            "reference": "Patient/7c5e9d31-b4fe-4449-a044-8a91ebc368db"
          }
        ],
        "note": [
          {
            "text": "Both parents are alive and healthy, with no known history of similar conditions."
          }
        ],
        "entry": [
          {
            "item": {
              "reference": "#fmh-4"
            }
          }
        ]
      },
      "request": {
        "method": "POST",
        "url": "FamilyMemberHistory"
      }
    }
  ]
}