{
  "resourceType": "Bundle",
  "type": "transaction",
  "entry": [
    {
      "fullUrl": "urn:uuid:bae6a07e-62be-4c39-9838-e3e9fa1214f0",
      "resource": {
        "resourceType": "Patient",
        "id": "bae6a07e-62be-4c39-9838-e3e9fa1214f0",
        "name": [
          {
            "family": "Geld",
            "given": [
              "John"
            ]
          }
        ],
        "gender": "male",
        "address": [
          {}
        ]
      },
      "request": {
        "method": "POST",
        "url": "Patient"
      }
    },
    {
      "fullUrl": "urn:uuid:ed319c39-db2b-437d-81d4-98fa723c631e",
      "resource": {
        "resourceType": "Encounter",
        "id": "ed319c39-db2b-437d-81d4-98fa723c631e",
        "identifier": [
          {
            "use": "temp",
            "value": "Encounter_John Geld_20251017122247"
          }
        ],
        "status": "completed",
        "priority": {
          "coding": [
            {
              "system": "http://snomed.info/sct",
              "code": "17621005",
              "display": "Normal"
            }
          ]
        },
        "type": [
          {
            "coding": [
              {
                "system": "http://snomed.info/sct",
                "code": "11429006",
                "display": "Consultation"
              }
            ]
          }
        ],
        "subject": {
          "reference": "Patient/bae6a07e-62be-4c39-9838-e3e9fa1214f0",
          "display": "John Geld"
        },
        "reason": [
          {
            "value": [
              {
                "concept": {
                  "text": "long limbs and mild myopia, learning difficulties and clumsiness in fine motor tasks"
                }
              }
            ]
          }
        ]
      },
      "request": {
        "method": "POST",
        "url": "Encounter"
      }
    },
    {
      "fullUrl": "urn:uuid:d6b10950-41c3-4ad2-a2a5-135ce50ad27a",
      "resource": {
        "resourceType": "Observation",
        "id": "d6b10950-41c3-4ad2-a2a5-135ce50ad27a",
        "status": "final",
        "category": [
          {
            "coding": [
              {
                "system": "http://terminology.hl7.org/CodeSystem/observation-category",
                "code": "laboratory",
                "display": "Laboratory"
              }
            ],
            "text": "Laboratory"
          }
        ],
        "code": {
          "coding": [
            {
              "system": "http://loinc.org",
              "code": "unknown",
              "display": "Urinalysis homocystine"
            }
          ],
          "text": "Urinalysis homocystine"
        },
        "subject": {
          "reference": "Patient/bae6a07e-62be-4c39-9838-e3e9fa1214f0"
        },
        "encounter": {
          "reference": "Encounter/ed319c39-db2b-437d-81d4-98fa723c631e"
        },
        "effectiveDateTime": "2025-10-17T10:22:47.509327Z",
        "interpretation": [
          {
            "coding": [
              {
                "system": "http://terminology.hl7.org/CodeSystem/v3-ObservationInterpretation",
                "code": "H",
                "display": "High"
              }
            ]
          }
        ]
      },
      "request": {
        "method": "POST",
        "url": "Observation"
      }
    },
    {
      "fullUrl": "urn:uuid:8d5e85cc-6653-4eae-8fc8-025fb686ac9d",
      "resource": {
        "resourceType": "Observation",
        "id": "8d5e85cc-6653-4eae-8fc8-025fb686ac9d",
        "status": "final",
        "category": [
          {
            "coding": [
              {
                "system": "http://terminology.hl7.org/CodeSystem/observation-category",
                "code": "laboratory",
                "display": "Laboratory"
              }
            ],
            "text": "Laboratory"
          }
        ],
        "code": {
          "coding": [
            {
              "system": "http://loinc.org",
              "code": "32615-7",
              "display": "Hycs-Cys diS SerPl-sCnc"
            }
          ],
          "text": "Plasma homocysteine"
        },
        "subject": {
          "reference": "Patient/bae6a07e-62be-4c39-9838-e3e9fa1214f0"
        },
        "encounter": {
          "reference": "Encounter/ed319c39-db2b-437d-81d4-98fa723c631e"
        },
        "effectiveDateTime": "2025-10-17T10:22:47.704698Z",
        "interpretation": [
          {
            "coding": [
              {
                "system": "http://terminology.hl7.org/CodeSystem/v3-ObservationInterpretation",
                "code": "H",
                "display": "High"
              }
            ]
          }
        ],
        "note": [
          {
            "text": "Definition: https://loinc.org/32615-7/"
          }
        ]
      },
      "request": {
        "method": "POST",
        "url": "Observation"
      }
    },
    {
      "fullUrl": "urn:uuid:2d3e1066-20a1-45ee-9faf-c7504e335d96",
      "resource": {
        "resourceType": "Observation",
        "id": "2d3e1066-20a1-45ee-9faf-c7504e335d96",
        "status": "final",
        "category": [
          {
            "coding": [
              {
                "system": "http://terminology.hl7.org/CodeSystem/observation-category",
                "code": "laboratory",
                "display": "Laboratory"
              }
            ],
            "text": "Laboratory"
          }
        ],
        "code": {
          "coding": [
            {
              "system": "http://loinc.org",
              "code": "78966-9",
              "display": "SAMe SerPl-sCnc"
            }
          ],
          "text": "Plasma methionine"
        },
        "subject": {
          "reference": "Patient/bae6a07e-62be-4c39-9838-e3e9fa1214f0"
        },
        "encounter": {
          "reference": "Encounter/ed319c39-db2b-437d-81d4-98fa723c631e"
        },
        "effectiveDateTime": "2025-10-17T10:22:47.909437Z",
        "interpretation": [
          {
            "coding": [
              {
                "system": "http://terminology.hl7.org/CodeSystem/v3-ObservationInterpretation",
                "code": "N",
                "display": "Normal"
              }
            ]
          }
        ],
        "note": [
          {
            "text": "Definition: https://loinc.org/78966-9/"
          }
        ]
      },
      "request": {
        "method": "POST",
        "url": "Observation"
      }
    },
    {
      "fullUrl": "urn:uuid:bf3fb01d-f22d-4afe-9ecc-3d20aca183d2",
      "resource": {
        "resourceType": "Observation",
        "id": "bf3fb01d-f22d-4afe-9ecc-3d20aca183d2",
        "status": "final",
        "category": [
          {
            "coding": [
              {
                "system": "http://terminology.hl7.org/CodeSystem/observation-category",
                "code": "exam",
                "display": "Exam"
              }
            ],
            "text": "Exam"
          }
        ],
        "code": {
          "coding": [
            {
              "system": "http://snomed.info/sct",
              "code": "62250003",
              "display": "Arachnodactyly"
            }
          ],
          "text": "Arachnodactyly"
        },
        "subject": {
          "reference": "Patient/bae6a07e-62be-4c39-9838-e3e9fa1214f0"
        },
        "encounter": {
          "reference": "Encounter/ed319c39-db2b-437d-81d4-98fa723c631e"
        },
        "effectivePeriod": {
          "start": "2025-10-17T10:22:49.574263Z"
        },
        "valueBoolean": true,
        "note": [
          {
            "text": "Definition: https://snomed.info/id/62250003"
          }
        ]
      },
      "request": {
        "method": "POST",
        "url": "Observation"
      }
    },
    {
      "fullUrl": "urn:uuid:f3c1ee9c-7f7e-48e7-8e18-a28a3b944e8f",
      "resource": {
        "resourceType": "Observation",
        "id": "f3c1ee9c-7f7e-48e7-8e18-a28a3b944e8f",
        "status": "final",
        "category": [
          {
            "coding": [
              {
                "system": "http://terminology.hl7.org/CodeSystem/observation-category",
                "code": "exam",
                "display": "Exam"
              }
            ],
            "text": "Exam"
          }
        ],
        "code": {
          "coding": [
            {
              "system": "http://snomed.info/sct",
              "code": "111266001",
              "display": "Acquired scoliosis"
            }
          ],
          "text": "Mild scoliosis"
        },
        "subject": {
          "reference": "Patient/bae6a07e-62be-4c39-9838-e3e9fa1214f0"
        },
        "encounter": {
          "reference": "Encounter/ed319c39-db2b-437d-81d4-98fa723c631e"
        },
        "effectivePeriod": {
          "start": "2025-10-17T10:22:51.078020Z"
        },
        "valueBoolean": true,
        "note": [
          {
            "text": "Definition: https://snomed.info/id/111266001"
          }
        ]
      },
      "request": {
        "method": "POST",
        "url": "Observation"
      }
    },
    {
      "fullUrl": "urn:uuid:935dc272-ba14-4206-9888-2c4c4b7109ed",
      "resource": {
        "resourceType": "Observation",
        "id": "935dc272-ba14-4206-9888-2c4c4b7109ed",
        "status": "final",
        "category": [
          {
            "coding": [
              {
                "system": "http://terminology.hl7.org/CodeSystem/observation-category",
                "code": "exam",
                "display": "Exam"
              }
            ],
            "text": "Exam"
          }
        ],
        "code": {
          "coding": [
            {
              "system": "http://snomed.info/sct",
              "code": "161129001",
              "display": "Learning difficulties"
            }
          ],
          "text": "Learning difficulties"
        },
        "subject": {
          "reference": "Patient/bae6a07e-62be-4c39-9838-e3e9fa1214f0"
        },
        "encounter": {
          "reference": "Encounter/ed319c39-db2b-437d-81d4-98fa723c631e"
        },
        "effectivePeriod": {
          "start": "2025-10-17T10:22:52.613022Z"
        },
        "valueBoolean": true,
        "note": [
          {
            "text": "Definition: https://snomed.info/id/161129001"
          }
        ]
      },
      "request": {
        "method": "POST",
        "url": "Observation"
      }
    },
    {
      "fullUrl": "urn:uuid:22244703-106e-4921-adac-cf5e12eec379",
      "resource": {
        "resourceType": "Observation",
        "id": "22244703-106e-4921-adac-cf5e12eec379",
        "status": "final",
        "category": [
          {
            "coding": [
              {
                "system": "http://terminology.hl7.org/CodeSystem/observation-category",
                "code": "exam",
                "display": "Exam"
              }
            ],
            "text": "Exam"
          }
        ],
        "code": {
          "coding": [
            {
              "system": "http://snomed.info/sct",
              "code": "307653008",
              "display": "Clumsiness - motor delay"
            }
          ],
          "text": "Clumsiness in fine motor tasks"
        },
        "subject": {
          "reference": "Patient/bae6a07e-62be-4c39-9838-e3e9fa1214f0"
        },
        "encounter": {
          "reference": "Encounter/ed319c39-db2b-437d-81d4-98fa723c631e"
        },
        "effectivePeriod": {
          "start": "2025-10-17T10:22:54.253858Z"
        },
        "valueBoolean": true,
        "note": [
          {
            "text": "Definition: https://snomed.info/id/307653008"
          }
        ]
      },
      "request": {
        "method": "POST",
        "url": "Observation"
      }
    },
    {
      "fullUrl": "urn:uuid:9ac58005-24aa-4a34-a4c3-1f363a81443a",
      "resource": {
        "resourceType": "Observation",
        "id": "9ac58005-24aa-4a34-a4c3-1f363a81443a",
        "status": "final",
        "category": [
          {
            "coding": [
              {
                "system": "http://terminology.hl7.org/CodeSystem/observation-category",
                "code": "exam",
                "display": "Exam"
              }
            ],
            "text": "Exam"
          }
        ],
        "code": {
          "coding": [
            {
              "system": "http://snomed.info/sct",
              "code": "57190000",
              "display": "Myopia"
            }
          ],
          "text": "Mild myopia"
        },
        "subject": {
          "reference": "Patient/bae6a07e-62be-4c39-9838-e3e9fa1214f0"
        },
        "encounter": {
          "reference": "Encounter/ed319c39-db2b-437d-81d4-98fa723c631e"
        },
        "effectivePeriod": {
          "start": "2025-10-17T10:22:55.891644Z"
        },
        "valueBoolean": true,
        "note": [
          {
            "text": "Definition: https://snomed.info/id/57190000"
          }
        ]
      },
      "request": {
        "method": "POST",
        "url": "Observation"
      }
    }
  ]
}