{
  "resourceType": "Bundle",
  "type": "transaction",
  "entry": [
    {
      "fullUrl": "urn:uuid:6aee088c-ac9b-42e5-9c62-ea92a1f0460c",
      "resource": {
        "resourceType": "Patient",
        "id": "6aee088c-ac9b-42e5-9c62-ea92a1f0460c",
        "name": [
          {
            "family": "Thompson",
            "given": [
              "Ethan"
            ]
          }
        ],
        "gender": "male",
        "birthDate": "2015-01-01",
        "address": [
          {}
        ]
      },
      "request": {
        "method": "POST",
        "url": "Patient"
      }
    },
    {
      "fullUrl": "urn:uuid:827166ff-1d29-4f81-8c9b-68f7795c36cf",
      "resource": {
        "resourceType": "Encounter",
        "id": "827166ff-1d29-4f81-8c9b-68f7795c36cf",
        "identifier": [
          {
            "use": "temp",
            "value": "Encounter_Ethan Thompson_20251020132811"
          }
        ],
        "status": "completed",
        "priority": {
          "coding": [
            {
              "system": "http://snomed.info/sct",
              "code": "17621005",
              "display": "Normal"
            }
          ]
        },
        "type": [
          {
            "coding": [
              {
                "system": "http://snomed.info/sct",
                "code": "11429006",
                "display": "Consultation"
              }
            ]
          }
        ],
        "subject": {
          "reference": "Patient/6aee088c-ac9b-42e5-9c62-ea92a1f0460c",
          "display": "Ethan Thompson"
        },
        "reason": [
          {
            "value": [
              {
                "concept": {
                  "text": "mild clumsiness and difficulty with fine motor tasks"
                }
              }
            ]
          }
        ]
      },
      "request": {
        "method": "POST",
        "url": "Encounter"
      }
    },
    {
      "fullUrl": "urn:uuid:77bbb2c8-6fb2-4ad8-9fc6-e01b0791b6ba",
      "resource": {
        "resourceType": "Observation",
        "id": "77bbb2c8-6fb2-4ad8-9fc6-e01b0791b6ba",
        "status": "final",
        "category": [
          {
            "coding": [
              {
                "system": "http://terminology.hl7.org/CodeSystem/observation-category",
                "code": "laboratory",
                "display": "Laboratory"
              }
            ],
            "text": "Laboratory"
          }
        ],
        "code": {
          "coding": [
            {
              "system": "http://loinc.org",
              "code": "2428-1",
              "display": "Hcys SerPl-mCnc"
            }
          ],
          "text": "Homocysteine"
        },
        "subject": {
          "reference": "Patient/6aee088c-ac9b-42e5-9c62-ea92a1f0460c"
        },
        "encounter": {
          "reference": "Encounter/827166ff-1d29-4f81-8c9b-68f7795c36cf"
        },
        "effectiveDateTime": "2025-10-16",
        "valueQuantity": {
          "value": 15.0,
          "unit": "micromoles per liter",
          "system": "http://unitsofmeasure.org",
          "code": "micromoles per liter"
        },
        "interpretation": [
          {
            "coding": [
              {
                "system": "http://terminology.hl7.org/CodeSystem/v3-ObservationInterpretation",
                "code": "A",
                "display": "Abnormal"
              }
            ]
          }
        ],
        "note": [
          {
            "text": "Definition: https://loinc.org/2428-1/"
          }
        ]
      },
      "request": {
        "method": "POST",
        "url": "Observation"
      }
    },
    {
      "fullUrl": "urn:uuid:a4ded541-b042-4ae9-92c9-3cbd0c3d4afb",
      "resource": {
        "resourceType": "Observation",
        "id": "a4ded541-b042-4ae9-92c9-3cbd0c3d4afb",
        "status": "final",
        "category": [
          {
            "coding": [
              {
                "system": "http://terminology.hl7.org/CodeSystem/observation-category",
                "code": "laboratory",
                "display": "Laboratory"
              }
            ],
            "text": "Laboratory"
          }
        ],
        "code": {
          "coding": [
            {
              "system": "http://loinc.org",
              "code": "2282-2",
              "display": "Folate Bld-mCnc"
            }
          ],
          "text": "Folate"
        },
        "subject": {
          "reference": "Patient/6aee088c-ac9b-42e5-9c62-ea92a1f0460c"
        },
        "encounter": {
          "reference": "Encounter/827166ff-1d29-4f81-8c9b-68f7795c36cf"
        },
        "effectiveDateTime": "2025-10-16",
        "interpretation": [
          {
            "coding": [
              {
                "system": "http://terminology.hl7.org/CodeSystem/v3-ObservationInterpretation",
                "code": "N",
                "display": "Normal"
              }
            ]
          }
        ],
        "note": [
          {
            "text": "Definition: https://loinc.org/2282-2/"
          }
        ]
      },
      "request": {
        "method": "POST",
        "url": "Observation"
      }
    },
    {
      "fullUrl": "urn:uuid:01a2fb90-b115-42f2-b895-1b430324f5f5",
      "resource": {
        "resourceType": "Observation",
        "id": "01a2fb90-b115-42f2-b895-1b430324f5f5",
        "status": "final",
        "category": [
          {
            "coding": [
              {
                "system": "http://terminology.hl7.org/CodeSystem/observation-category",
                "code": "laboratory",
                "display": "Laboratory"
              }
            ],
            "text": "Laboratory"
          }
        ],
        "code": {
          "coding": [
            {
              "system": "http://loinc.org",
              "code": "55885-8",
              "display": "Vit B12b Ur-mCnc"
            }
          ],
          "text": "Vitamin B12"
        },
        "subject": {
          "reference": "Patient/6aee088c-ac9b-42e5-9c62-ea92a1f0460c"
        },
        "encounter": {
          "reference": "Encounter/827166ff-1d29-4f81-8c9b-68f7795c36cf"
        },
        "effectiveDateTime": "2025-10-16",
        "interpretation": [
          {
            "coding": [
              {
                "system": "http://terminology.hl7.org/CodeSystem/v3-ObservationInterpretation",
                "code": "N",
                "display": "Normal"
              }
            ]
          }
        ],
        "note": [
          {
            "text": "Definition: https://loinc.org/55885-8/"
          }
        ]
      },
      "request": {
        "method": "POST",
        "url": "Observation"
      }
    },
    {
      "fullUrl": "urn:uuid:0af76e11-3a3f-47d5-9c7c-112932f2fe19",
      "resource": {
        "resourceType": "Observation",
        "id": "0af76e11-3a3f-47d5-9c7c-112932f2fe19",
        "status": "final",
        "category": [
          {
            "coding": [
              {
                "system": "http://terminology.hl7.org/CodeSystem/observation-category",
                "code": "exam",
                "display": "Exam"
              }
            ],
            "text": "Exam"
          }
        ],
        "code": {
          "coding": [
            {
              "system": "http://snomed.info/sct",
              "code": "7006003",
              "display": "Clumsiness"
            }
          ],
          "text": "Clumsiness"
        },
        "subject": {
          "reference": "Patient/6aee088c-ac9b-42e5-9c62-ea92a1f0460c"
        },
        "encounter": {
          "reference": "Encounter/827166ff-1d29-4f81-8c9b-68f7795c36cf"
        },
        "effectivePeriod": {
          "start": "2025-10-16"
        },
        "valueBoolean": true,
        "note": [
          {
            "text": "Definition: https://snomed.info/id/7006003"
          }
        ]
      },
      "request": {
        "method": "POST",
        "url": "Observation"
      }
    },
    {
      "fullUrl": "urn:uuid:03294db3-2992-43eb-affe-4fe53d03158e",
      "resource": {
        "resourceType": "Observation",
        "id": "03294db3-2992-43eb-affe-4fe53d03158e",
        "status": "final",
        "category": [
          {
            "coding": [
              {
                "system": "http://terminology.hl7.org/CodeSystem/observation-category",
                "code": "exam",
                "display": "Exam"
              }
            ],
            "text": "Exam"
          }
        ],
        "code": {
          "coding": [
            {
              "system": "http://snomed.info/sct",
              "code": "1305003",
              "display": "Double"
            }
          ],
          "text": "Double vision"
        },
        "subject": {
          "reference": "Patient/6aee088c-ac9b-42e5-9c62-ea92a1f0460c"
        },
        "encounter": {
          "reference": "Encounter/827166ff-1d29-4f81-8c9b-68f7795c36cf"
        },
        "effectivePeriod": {
          "start": "2025-10-16"
        },
        "valueBoolean": true,
        "note": [
          {
            "text": "Definition: https://snomed.info/id/1305003"
          }
        ]
      },
      "request": {
        "method": "POST",
        "url": "Observation"
      }
    },
    {
      "fullUrl": "urn:uuid:94940892-3a72-49af-b25b-d592a6be7268",
      "resource": {
        "resourceType": "Observation",
        "id": "94940892-3a72-49af-b25b-d592a6be7268",
        "status": "final",
        "category": [
          {
            "coding": [
              {
                "system": "http://terminology.hl7.org/CodeSystem/observation-category",
                "code": "exam",
                "display": "Exam"
              }
            ],
            "text": "Exam"
          }
        ],
        "code": {
          "coding": [
            {
              "system": "http://snomed.info/sct",
              "code": "438562002",
              "display": "Reconstruction of dislocating patella with patellectomy"
            }
          ],
          "text": "Dislocating shoulder"
        },
        "subject": {
          "reference": "Patient/6aee088c-ac9b-42e5-9c62-ea92a1f0460c"
        },
        "encounter": {
          "reference": "Encounter/827166ff-1d29-4f81-8c9b-68f7795c36cf"
        },
        "effectivePeriod": {
          "start": "2025-10-16"
        },
        "valueBoolean": true,
        "note": [
          {
            "text": "Definition: https://snomed.info/id/438562002"
          }
        ]
      },
      "request": {
        "method": "POST",
        "url": "Observation"
      }
    },
    {
      "fullUrl": "urn:uuid:6da5cfeb-3ca2-43e9-abf3-4df943992263",
      "resource": {
        "resourceType": "Observation",
        "id": "6da5cfeb-3ca2-43e9-abf3-4df943992263",
        "status": "final",
        "category": [
          {
            "coding": [
              {
                "system": "http://terminology.hl7.org/CodeSystem/observation-category",
                "code": "vital-signs",
                "display": "Vital Signs"
              }
            ],
            "text": "Vital Signs"
          }
        ],
        "code": {
          "coding": [
            {
              "system": "http://loinc.org",
              "code": "8310-5",
              "display": "Body temperature"
            }
          ],
          "text": "temperature"
        },
        "subject": {
          "reference": "Patient/6aee088c-ac9b-42e5-9c62-ea92a1f0460c"
        },
        "encounter": {
          "reference": "Encounter/827166ff-1d29-4f81-8c9b-68f7795c36cf"
        },
        "effectiveDateTime": "2025-10-16",
        "valueQuantity": {
          "value": 37.2,
          "unit": "degrees Celsius",
          "system": "http://unitsofmeasure.org",
          "code": "degrees Celsius"
        },
        "interpretation": [
          {
            "coding": [
              {
                "system": "http://terminology.hl7.org/CodeSystem/v3-ObservationInterpretation",
                "code": "N",
                "display": "Normal"
              }
            ],
            "text": "Normal"
          }
        ]
      },
      "request": {
        "method": "POST",
        "url": "Observation"
      }
    },
    {
      "fullUrl": "urn:uuid:4a632220-6951-4126-9d1f-047d351c9662",
      "resource": {
        "resourceType": "Observation",
        "id": "4a632220-6951-4126-9d1f-047d351c9662",
        "status": "final",
        "category": [
          {
            "coding": [
              {
                "system": "http://terminology.hl7.org/CodeSystem/observation-category",
                "code": "vital-signs",
                "display": "Vital Signs"
              }
            ],
            "text": "Vital Signs"
          }
        ],
        "code": {
          "coding": [
            {
              "system": "http://loinc.org",
              "code": "8337-8",
              "display": "Bdy weight special circumstances"
            }
          ],
          "text": "weight"
        },
        "subject": {
          "reference": "Patient/6aee088c-ac9b-42e5-9c62-ea92a1f0460c"
        },
        "encounter": {
          "reference": "Encounter/827166ff-1d29-4f81-8c9b-68f7795c36cf"
        },
        "effectiveDateTime": "2025-10-16",
        "valueQuantity": {
          "value": 32.0,
          "unit": "kilograms",
          "system": "http://unitsofmeasure.org",
          "code": "kilograms"
        },
        "interpretation": [
          {
            "coding": [
              {
                "system": "http://terminology.hl7.org/CodeSystem/v3-ObservationInterpretation",
                "code": "N",
                "display": "Normal"
              }
            ],
            "text": "Normal"
          }
        ]
      },
      "request": {
        "method": "POST",
        "url": "Observation"
      }
    },
    {
      "fullUrl": "urn:uuid:87fda32b-9466-4157-9c06-b8ef444b3977",
      "resource": {
        "resourceType": "Observation",
        "id": "87fda32b-9466-4157-9c06-b8ef444b3977",
        "status": "final",
        "category": [
          {
            "coding": [
              {
                "system": "http://terminology.hl7.org/CodeSystem/observation-category",
                "code": "vital-signs",
                "display": "Vital Signs"
              }
            ],
            "text": "Vital Signs"
          }
        ],
        "code": {
          "coding": [
            {
              "system": "http://loinc.org",
              "code": "92998-4",
              "display": "Lower segment"
            }
          ],
          "text": "height"
        },
        "subject": {
          "reference": "Patient/6aee088c-ac9b-42e5-9c62-ea92a1f0460c"
        },
        "encounter": {
          "reference": "Encounter/827166ff-1d29-4f81-8c9b-68f7795c36cf"
        },
        "effectiveDateTime": "2025-10-16",
        "valueQuantity": {
          "value": 140.0,
          "unit": "centimeters",
          "system": "http://unitsofmeasure.org",
          "code": "centimeters"
        },
        "interpretation": [
          {
            "coding": [
              {
                "system": "http://terminology.hl7.org/CodeSystem/v3-ObservationInterpretation",
                "code": "N",
                "display": "Normal"
              }
            ],
            "text": "Normal"
          }
        ]
      },
      "request": {
        "method": "POST",
        "url": "Observation"
      }
    },
    {
      "fullUrl": "urn:uuid:5647be74-0633-46aa-b5f8-02c664729087",
      "resource": {
        "resourceType": "Observation",
        "id": "5647be74-0633-46aa-b5f8-02c664729087",
        "status": "final",
        "category": [
          {
            "coding": [
              {
                "system": "http://terminology.hl7.org/CodeSystem/observation-category",
                "code": "vital-signs",
                "display": "Vital Signs"
              }
            ],
            "text": "Vital Signs"
          }
        ],
        "code": {
          "coding": [
            {
              "system": "http://loinc.org",
              "code": "97057-4",
              "display": "Body mass index"
            }
          ],
          "text": "body mass index"
        },
        "subject": {
          "reference": "Patient/6aee088c-ac9b-42e5-9c62-ea92a1f0460c"
        },
        "encounter": {
          "reference": "Encounter/827166ff-1d29-4f81-8c9b-68f7795c36cf"
        },
        "effectiveDateTime": "2025-10-16",
        "interpretation": [
          {
            "coding": [
              {
                "system": "http://terminology.hl7.org/CodeSystem/v3-ObservationInterpretation",
                "code": "N",
                "display": "Normal"
              }
            ],
            "text": "Normal"
          }
        ]
      },
      "request": {
        "method": "POST",
        "url": "Observation"
      }
    },
    {
      "fullUrl": "urn:uuid:cf51f59d-d821-4807-9e12-a549bc031354",
      "resource": {
        "resourceType": "Observation",
        "id": "cf51f59d-d821-4807-9e12-a549bc031354",
        "status": "final",
        "category": [
          {
            "coding": [
              {
                "system": "http://terminology.hl7.org/CodeSystem/observation-category",
                "code": "vital-signs",
                "display": "Vital Signs"
              }
            ],
            "text": "Vital Signs"
          }
        ],
        "code": {
          "coding": [
            {
              "system": "http://loinc.org",
              "code": "2717-7",
              "display": "OxyHgb MFr Plas"
            }
          ],
          "text": "oxygen saturation"
        },
        "subject": {
          "reference": "Patient/6aee088c-ac9b-42e5-9c62-ea92a1f0460c"
        },
        "encounter": {
          "reference": "Encounter/827166ff-1d29-4f81-8c9b-68f7795c36cf"
        },
        "effectiveDateTime": "2025-10-16",
        "valueQuantity": {
          "value": 98.0,
          "unit": "%",
          "system": "http://unitsofmeasure.org",
          "code": "%"
        },
        "interpretation": [
          {
            "coding": [
              {
                "system": "http://terminology.hl7.org/CodeSystem/v3-ObservationInterpretation",
                "code": "N",
                "display": "Normal"
              }
            ],
            "text": "Normal"
          }
        ]
      },
      "request": {
        "method": "POST",
        "url": "Observation"
      }
    },
    {
      "fullUrl": "urn:uuid:13a62ace-0c10-4aac-8e4b-038de1e7b51d",
      "resource": {
        "resourceType": "MedicationStatement",
        "id": "13a62ace-0c10-4aac-8e4b-038de1e7b51d",
        "status": "recorded",
        "medication": {
          "concept": {
            "coding": [
              {
                "system": "http://snomed.info/sct",
                "code": "412250002",
                "display": "Multivitamin agent"
              }
            ],
            "text": "Multivitamin"
          }
        },
        "subject": {
          "reference": "Patient/6aee088c-ac9b-42e5-9c62-ea92a1f0460c"
        },
        "encounter": {
          "reference": "Encounter/827166ff-1d29-4f81-8c9b-68f7795c36cf"
        },
        "effectiveDateTime": "2025-10-16",
        "informationSource": [
          {
            "reference": "Patient/6aee088c-ac9b-42e5-9c62-ea92a1f0460c"
          }
        ],
        "dosage": [
          {
            "text": "daily",
            "timing": {
              "repeat": {
                "frequency": 1,
                "period": 1.0,
                "periodUnit": "d"
              }
            }
          }
        ],
        "adherence": {
          "code": {
            "coding": [
              {
                "system": "http://hl7.org/fhir/CodeSystem/medication-statement-adherence",
                "code": "taking",
                "display": "Taking"
              }
            ]
          }
        }
      },
      "request": {
        "method": "POST",
        "url": "MedicationStatement"
      }
    },
    {
      "fullUrl": "urn:uuid:13627d49-b041-48a6-b50d-ec0f06f1fafe",
      "resource": {
        "resourceType": "Encounter",
        "id": "13627d49-b041-48a6-b50d-ec0f06f1fafe",
        "identifier": [
          {
            "use": "temp",
            "value": "Encounter_Ethan Thompson_20251020132821"
          }
        ],
        "status": "completed",
        "priority": {
          "coding": [
            {
              "system": "http://snomed.info/sct",
              "code": "17621005",
              "display": "Normal"
            }
          ]
        },
        "type": [
          {
            "coding": [
              {
                "system": "http://snomed.info/sct",
                "code": "11429006",
                "display": "Consultation"
              }
            ]
          }
        ],
        "subject": {
          "reference": "Patient/6aee088c-ac9b-42e5-9c62-ea92a1f0460c",
          "display": "Ethan Thompson"
        },
        "reason": [
          {
            "value": [
              {
                "concept": {
                  "text": "learning difficulties in school"
                }
              }
            ]
          }
        ]
      },
      "request": {
        "method": "POST",
        "url": "Encounter"
      }
    },
    {
      "fullUrl": "urn:uuid:bb748506-9a50-4637-9ede-dbf2bedf53b0",
      "resource": {
        "resourceType": "Observation",
        "id": "bb748506-9a50-4637-9ede-dbf2bedf53b0",
        "status": "final",
        "category": [
          {
            "coding": [
              {
                "system": "http://terminology.hl7.org/CodeSystem/observation-category",
                "code": "exam",
                "display": "Exam"
              }
            ],
            "text": "Exam"
          }
        ],
        "code": {
          "coding": [
            {
              "system": "http://snomed.info/sct",
              "code": "161129001",
              "display": "Learning difficulties"
            }
          ],
          "text": "Learning difficulties"
        },
        "subject": {
          "reference": "Patient/6aee088c-ac9b-42e5-9c62-ea92a1f0460c"
        },
        "encounter": {
          "reference": "Encounter/13627d49-b041-48a6-b50d-ec0f06f1fafe"
        },
        "effectivePeriod": {
          "start": "2025-08-16"
        },
        "valueBoolean": true,
        "note": [
          {
            "text": "Definition: https://snomed.info/id/161129001"
          }
        ]
      },
      "request": {
        "method": "POST",
        "url": "Observation"
      }
    },
    {
      "fullUrl": "urn:uuid:40fed573-4606-4a6d-bd8d-5bb71ed8b905",
      "resource": {
        "resourceType": "List",
        "id": "40fed573-4606-4a6d-bd8d-5bb71ed8b905",
        "contained": [
          {
            "resourceType": "FamilyMemberHistory",
            "id": "fmh-4",
            "status": "completed",
            "patient": {
              "reference": "Patient/6aee088c-ac9b-42e5-9c62-ea92a1f0460c"
            },
            "relationship": {
              "coding": [
                {
                  "system": "http://snomed.info/sct",
                  "code": "66839005",
                  "display": "Father"
                }
              ]
            },
            "deceasedBoolean": false,
            "condition": []
          }
        ],
        "status": "current",
        "mode": "snapshot",
        "code": {
          "coding": [
            {
              "system": "http://loinc.org",
              "code": "8670-2",
              "display": "History of family member diseases"
            }
          ]
        },
        "subject": [
          {
            "reference": "Patient/6aee088c-ac9b-42e5-9c62-ea92a1f0460c"
          }
        ],
        "note": [
          {
            "text": "Both parents are alive and healthy, with no known history of genetic disorders."
          }
        ],
        "entry": [
          {
            "item": {
              "reference": "#fmh-4"
            }
          }
        ]
      },
      "request": {
        "method": "POST",
        "url": "FamilyMemberHistory"
      }
    }
  ]
}