{
  "resourceType": "Bundle",
  "type": "transaction",
  "entry": [
    {
      "fullUrl": "urn:uuid:eb1a1941-a2ba-4178-9ca3-e32c45b58bd8",
      "resource": {
        "resourceType": "Patient",
        "id": "eb1a1941-a2ba-4178-9ca3-e32c45b58bd8",
        "name": [
          {
            "family": "Pavlova",
            "given": [
              "Anastasia"
            ]
          }
        ],
        "gender": "female",
        "address": [
          {}
        ]
      },
      "request": {
        "method": "POST",
        "url": "Patient"
      }
    },
    {
      "fullUrl": "urn:uuid:b215fd63-c684-48da-9fb2-959ff5887947",
      "resource": {
        "resourceType": "Encounter",
        "id": "b215fd63-c684-48da-9fb2-959ff5887947",
        "identifier": [
          {
            "use": "temp",
            "value": "Encounter_Anastasia Pavlova_20251017182828"
          }
        ],
        "status": "completed",
        "priority": {
          "coding": [
            {
              "system": "http://snomed.info/sct",
              "code": "17621005",
              "display": "Normal"
            }
          ]
        },
        "type": [
          {
            "coding": [
              {
                "system": "http://snomed.info/sct",
                "code": "11429006",
                "display": "Consultation"
              }
            ]
          }
        ],
        "subject": {
          "reference": "Patient/eb1a1941-a2ba-4178-9ca3-e32c45b58bd8",
          "display": "Anastasia Pavlova"
        },
        "reason": [
          {
            "value": [
              {
                "concept": {
                  "text": "delayed speech development and frequent episodes of joint dislocation"
                }
              }
            ]
          }
        ]
      },
      "request": {
        "method": "POST",
        "url": "Encounter"
      }
    },
    {
      "fullUrl": "urn:uuid:3446bf4f-cc4f-4d6c-8b85-55f9e3fde629",
      "resource": {
        "resourceType": "Observation",
        "id": "3446bf4f-cc4f-4d6c-8b85-55f9e3fde629",
        "status": "final",
        "category": [
          {
            "coding": [
              {
                "system": "http://terminology.hl7.org/CodeSystem/observation-category",
                "code": "laboratory",
                "display": "Laboratory"
              }
            ],
            "text": "Laboratory"
          }
        ],
        "code": {
          "coding": [
            {
              "system": "http://loinc.org",
              "code": "2428-1",
              "display": "Hcys SerPl-mCnc"
            }
          ],
          "text": "Homocysteine"
        },
        "subject": {
          "reference": "Patient/eb1a1941-a2ba-4178-9ca3-e32c45b58bd8"
        },
        "encounter": {
          "reference": "Encounter/b215fd63-c684-48da-9fb2-959ff5887947"
        },
        "effectiveDateTime": "2025-10-16",
        "interpretation": [
          {
            "coding": [
              {
                "system": "http://terminology.hl7.org/CodeSystem/v3-ObservationInterpretation",
                "code": "H",
                "display": "High"
              }
            ]
          }
        ],
        "note": [
          {
            "text": "Definition: https://loinc.org/2428-1/"
          }
        ]
      },
      "request": {
        "method": "POST",
        "url": "Observation"
      }
    },
    {
      "fullUrl": "urn:uuid:65085e9d-9bbd-4b25-b126-28fad930678b",
      "resource": {
        "resourceType": "Observation",
        "id": "65085e9d-9bbd-4b25-b126-28fad930678b",
        "status": "final",
        "category": [
          {
            "coding": [
              {
                "system": "http://terminology.hl7.org/CodeSystem/observation-category",
                "code": "laboratory",
                "display": "Laboratory"
              }
            ],
            "text": "Laboratory"
          }
        ],
        "code": {
          "coding": [
            {
              "system": "http://loinc.org",
              "code": "18729-4",
              "display": "Urinalysis studies"
            }
          ],
          "text": "Urinalysis"
        },
        "subject": {
          "reference": "Patient/eb1a1941-a2ba-4178-9ca3-e32c45b58bd8"
        },
        "encounter": {
          "reference": "Encounter/b215fd63-c684-48da-9fb2-959ff5887947"
        },
        "effectiveDateTime": "2025-10-16",
        "interpretation": [
          {
            "coding": [
              {
                "system": "http://terminology.hl7.org/CodeSystem/v3-ObservationInterpretation",
                "code": "A",
                "display": "Abnormal"
              }
            ]
          }
        ],
        "note": [
          {
            "text": "Definition: https://loinc.org/18729-4/"
          }
        ]
      },
      "request": {
        "method": "POST",
        "url": "Observation"
      }
    },
    {
      "fullUrl": "urn:uuid:0d97d53d-d035-4985-a0aa-0f1d708d04ca",
      "resource": {
        "resourceType": "Observation",
        "id": "0d97d53d-d035-4985-a0aa-0f1d708d04ca",
        "status": "final",
        "category": [
          {
            "coding": [
              {
                "system": "http://terminology.hl7.org/CodeSystem/observation-category",
                "code": "exam",
                "display": "Exam"
              }
            ],
            "text": "Exam"
          }
        ],
        "code": {
          "coding": [
            {
              "system": "http://snomed.info/sct",
              "code": "425067005",
              "display": "Speech and language development finding"
            }
          ],
          "text": "Delayed speech development"
        },
        "subject": {
          "reference": "Patient/eb1a1941-a2ba-4178-9ca3-e32c45b58bd8"
        },
        "encounter": {
          "reference": "Encounter/b215fd63-c684-48da-9fb2-959ff5887947"
        },
        "effectivePeriod": {
          "start": "2025-10-16"
        },
        "valueBoolean": true,
        "note": [
          {
            "text": "Definition: https://snomed.info/id/425067005"
          }
        ]
      },
      "request": {
        "method": "POST",
        "url": "Observation"
      }
    },
    {
      "fullUrl": "urn:uuid:62671c45-dbec-421e-a455-24620b405d78",
      "resource": {
        "resourceType": "Observation",
        "id": "62671c45-dbec-421e-a455-24620b405d78",
        "status": "final",
        "category": [
          {
            "coding": [
              {
                "system": "http://terminology.hl7.org/CodeSystem/observation-category",
                "code": "exam",
                "display": "Exam"
              }
            ],
            "text": "Exam"
          }
        ],
        "code": {
          "coding": [
            {
              "system": "http://snomed.info/sct",
              "code": "108367008",
              "display": "Dislocation of joint"
            }
          ],
          "text": "Joint dislocation"
        },
        "subject": {
          "reference": "Patient/eb1a1941-a2ba-4178-9ca3-e32c45b58bd8"
        },
        "encounter": {
          "reference": "Encounter/b215fd63-c684-48da-9fb2-959ff5887947"
        },
        "effectivePeriod": {
          "start": "2025-10-16"
        },
        "valueBoolean": true,
        "note": [
          {
            "text": "Definition: https://snomed.info/id/108367008"
          }
        ]
      },
      "request": {
        "method": "POST",
        "url": "Observation"
      }
    },
    {
      "fullUrl": "urn:uuid:b5cc7f7d-10f9-4221-a1f3-fbd84ff4f133",
      "resource": {
        "resourceType": "Observation",
        "id": "b5cc7f7d-10f9-4221-a1f3-fbd84ff4f133",
        "status": "final",
        "category": [
          {
            "coding": [
              {
                "system": "http://terminology.hl7.org/CodeSystem/observation-category",
                "code": "exam",
                "display": "Exam"
              }
            ],
            "text": "Exam"
          }
        ],
        "code": {
          "coding": [
            {
              "system": "http://snomed.info/sct"
            }
          ],
          "text": "Squinting"
        },
        "subject": {
          "reference": "Patient/eb1a1941-a2ba-4178-9ca3-e32c45b58bd8"
        },
        "encounter": {
          "reference": "Encounter/b215fd63-c684-48da-9fb2-959ff5887947"
        },
        "effectivePeriod": {
          "start": "2025-10-16"
        },
        "valueBoolean": true,
        "note": [
          {
            "text": "Definition: https://snomed.info/id/None"
          }
        ]
      },
      "request": {
        "method": "POST",
        "url": "Observation"
      }
    },
    {
      "fullUrl": "urn:uuid:2a4fb6ec-562a-4cc2-a59d-8ffe896707ba",
      "resource": {
        "resourceType": "Observation",
        "id": "2a4fb6ec-562a-4cc2-a59d-8ffe896707ba",
        "status": "final",
        "category": [
          {
            "coding": [
              {
                "system": "http://terminology.hl7.org/CodeSystem/observation-category",
                "code": "vital-signs",
                "display": "Vital Signs"
              }
            ],
            "text": "Vital Signs"
          }
        ],
        "code": {
          "coding": [
            {
              "system": "http://loinc.org",
              "code": "92998-4",
              "display": "Lower segment"
            }
          ],
          "text": "Height"
        },
        "subject": {
          "reference": "Patient/eb1a1941-a2ba-4178-9ca3-e32c45b58bd8"
        },
        "encounter": {
          "reference": "Encounter/b215fd63-c684-48da-9fb2-959ff5887947"
        },
        "effectiveDateTime": "2025-10-16",
        "interpretation": [
          {
            "coding": [
              {
                "system": "http://terminology.hl7.org/CodeSystem/v3-ObservationInterpretation",
                "code": "H",
                "display": "High"
              }
            ],
            "text": "High"
          }
        ]
      },
      "request": {
        "method": "POST",
        "url": "Observation"
      }
    },
    {
      "fullUrl": "urn:uuid:f3d0e580-d97d-4df5-a79d-2666cc3007bf",
      "resource": {
        "resourceType": "Observation",
        "id": "f3d0e580-d97d-4df5-a79d-2666cc3007bf",
        "status": "final",
        "category": [
          {
            "coding": [
              {
                "system": "http://terminology.hl7.org/CodeSystem/observation-category",
                "code": "vital-signs",
                "display": "Vital Signs"
              }
            ],
            "text": "Vital Signs"
          }
        ],
        "code": {
          "coding": [
            {
              "system": "http://loinc.org",
              "code": "97057-4",
              "display": "Body mass index"
            }
          ],
          "text": "Body mass index"
        },
        "subject": {
          "reference": "Patient/eb1a1941-a2ba-4178-9ca3-e32c45b58bd8"
        },
        "encounter": {
          "reference": "Encounter/b215fd63-c684-48da-9fb2-959ff5887947"
        },
        "effectiveDateTime": "2025-10-16",
        "interpretation": [
          {
            "coding": [
              {
                "system": "http://terminology.hl7.org/CodeSystem/v3-ObservationInterpretation",
                "code": "L",
                "display": "Low"
              }
            ],
            "text": "Low"
          }
        ]
      },
      "request": {
        "method": "POST",
        "url": "Observation"
      }
    },
    {
      "fullUrl": "urn:uuid:5c50dce9-b5d5-4c31-947e-bdc4b606a294",
      "resource": {
        "resourceType": "List",
        "id": "5c50dce9-b5d5-4c31-947e-bdc4b606a294",
        "contained": [
          {
            "resourceType": "FamilyMemberHistory",
            "id": "fmh-1",
            "status": "completed",
            "patient": {
              "reference": "Patient/eb1a1941-a2ba-4178-9ca3-e32c45b58bd8"
            },
            "relationship": {
              "coding": [
                {
                  "system": "http://snomed.info/sct",
                  "code": "70924004",
                  "display": "Brother"
                }
              ]
            },
            "deceasedBoolean": false,
            "condition": [
              {
                "code": {
                  "coding": [
                    {
                      "system": "http://snomed.info/sct",
                      "code": "432805000",
                      "display": "Suspected deep vein thrombosis"
                    }
                  ]
                }
              }
            ]
          }
        ],
        "status": "current",
        "mode": "snapshot",
        "code": {
          "coding": [
            {
              "system": "http://loinc.org",
              "code": "8670-2",
              "display": "History of family member diseases"
            }
          ]
        },
        "subject": [
          {
            "reference": "Patient/eb1a1941-a2ba-4178-9ca3-e32c45b58bd8"
          }
        ],
        "entry": [
          {
            "item": {
              "reference": "#fmh-1"
            }
          }
        ]
      },
      "request": {
        "method": "POST",
        "url": "FamilyMemberHistory"
      }
    }
  ]
}