{
  "resourceType": "Bundle",
  "type": "transaction",
  "entry": [
    {
      "fullUrl": "urn:uuid:1621d0c1-b6dc-449f-b8d8-506cf8c88874",
      "resource": {
        "resourceType": "Patient",
        "id": "1621d0c1-b6dc-449f-b8d8-506cf8c88874",
        "name": [
          {
            "family": "Wilson",
            "given": [
              "Emily"
            ]
          }
        ],
        "gender": "female",
        "birthDate": "2000-07-12",
        "address": [
          {}
        ]
      },
      "request": {
        "method": "POST",
        "url": "Patient"
      }
    },
    {
      "fullUrl": "urn:uuid:5a0062b7-e922-4ec6-96fe-bac8b43e2f58",
      "resource": {
        "resourceType": "Encounter",
        "id": "5a0062b7-e922-4ec6-96fe-bac8b43e2f58",
        "identifier": [
          {
            "use": "temp",
            "value": "Encounter_Emily Wilson_20251021093927"
          }
        ],
        "status": "completed",
        "priority": {
          "coding": [
            {
              "system": "http://snomed.info/sct",
              "code": "17621005",
              "display": "Normal"
            }
          ]
        },
        "type": [
          {
            "coding": [
              {
                "system": "http://snomed.info/sct",
                "code": "11429006",
                "display": "Consultation"
              }
            ]
          }
        ],
        "subject": {
          "reference": "Patient/1621d0c1-b6dc-449f-b8d8-506cf8c88874",
          "display": "Emily Wilson"
        },
        "reason": [
          {
            "value": [
              {
                "concept": {
                  "text": "complaints of blurred vision and occasional muscle weakness"
                }
              }
            ]
          }
        ]
      },
      "request": {
        "method": "POST",
        "url": "Encounter"
      }
    },
    {
      "fullUrl": "urn:uuid:31bfaa51-f313-47ec-9c56-1a1d40b7c3c9",
      "resource": {
        "resourceType": "Observation",
        "id": "31bfaa51-f313-47ec-9c56-1a1d40b7c3c9",
        "status": "final",
        "category": [
          {
            "coding": [
              {
                "system": "http://terminology.hl7.org/CodeSystem/observation-category",
                "code": "laboratory",
                "display": "Laboratory"
              }
            ],
            "text": "Laboratory"
          }
        ],
        "code": {
          "coding": [
            {
              "system": "http://loinc.org",
              "code": "32615-7",
              "display": "Hycs-Cys diS SerPl-sCnc"
            }
          ],
          "text": "Serum Homocysteine"
        },
        "subject": {
          "reference": "Patient/1621d0c1-b6dc-449f-b8d8-506cf8c88874"
        },
        "encounter": {
          "reference": "Encounter/5a0062b7-e922-4ec6-96fe-bac8b43e2f58"
        },
        "effectiveDateTime": "2024-10-16",
        "valueQuantity": {
          "value": 25.0,
          "unit": "μmol/L",
          "system": "http://unitsofmeasure.org",
          "code": "μmol/L"
        },
        "interpretation": [
          {
            "coding": [
              {
                "system": "http://terminology.hl7.org/CodeSystem/v3-ObservationInterpretation",
                "code": "A",
                "display": "Abnormal"
              }
            ]
          }
        ],
        "note": [
          {
            "text": "Definition: https://loinc.org/32615-7/"
          }
        ]
      },
      "request": {
        "method": "POST",
        "url": "Observation"
      }
    },
    {
      "fullUrl": "urn:uuid:aa3ffa3e-18e2-40a2-9315-289f39810fde",
      "resource": {
        "resourceType": "Observation",
        "id": "aa3ffa3e-18e2-40a2-9315-289f39810fde",
        "status": "final",
        "category": [
          {
            "coding": [
              {
                "system": "http://terminology.hl7.org/CodeSystem/observation-category",
                "code": "laboratory",
                "display": "Laboratory"
              }
            ],
            "text": "Laboratory"
          }
        ],
        "code": {
          "coding": [
            {
              "system": "http://loinc.org",
              "code": "58410-2",
              "display": "Complete blood count panel"
            }
          ],
          "text": "Complete Blood Count"
        },
        "subject": {
          "reference": "Patient/1621d0c1-b6dc-449f-b8d8-506cf8c88874"
        },
        "encounter": {
          "reference": "Encounter/5a0062b7-e922-4ec6-96fe-bac8b43e2f58"
        },
        "effectiveDateTime": "2024-10-16",
        "interpretation": [
          {
            "coding": [
              {
                "system": "http://terminology.hl7.org/CodeSystem/v3-ObservationInterpretation",
                "code": "N",
                "display": "Normal"
              }
            ]
          }
        ],
        "note": [
          {
            "text": "Definition: https://loinc.org/58410-2/"
          }
        ]
      },
      "request": {
        "method": "POST",
        "url": "Observation"
      }
    },
    {
      "fullUrl": "urn:uuid:871814be-7c15-4194-b1ae-602557b72249",
      "resource": {
        "resourceType": "Observation",
        "id": "871814be-7c15-4194-b1ae-602557b72249",
        "status": "final",
        "category": [
          {
            "coding": [
              {
                "system": "http://terminology.hl7.org/CodeSystem/observation-category",
                "code": "exam",
                "display": "Exam"
              }
            ],
            "text": "Exam"
          }
        ],
        "code": {
          "coding": [
            {
              "system": "http://snomed.info/sct",
              "code": "72436007",
              "display": "Blurred disc margin"
            }
          ],
          "text": "Blurred Vision"
        },
        "subject": {
          "reference": "Patient/1621d0c1-b6dc-449f-b8d8-506cf8c88874"
        },
        "encounter": {
          "reference": "Encounter/5a0062b7-e922-4ec6-96fe-bac8b43e2f58"
        },
        "effectivePeriod": {
          "start": "2024-10-16"
        },
        "valueBoolean": true,
        "note": [
          {
            "text": "Definition: https://snomed.info/id/72436007"
          }
        ]
      },
      "request": {
        "method": "POST",
        "url": "Observation"
      }
    },
    {
      "fullUrl": "urn:uuid:a111e2d2-acb6-4125-8ae5-dc72f1e168d2",
      "resource": {
        "resourceType": "Observation",
        "id": "a111e2d2-acb6-4125-8ae5-dc72f1e168d2",
        "status": "final",
        "category": [
          {
            "coding": [
              {
                "system": "http://terminology.hl7.org/CodeSystem/observation-category",
                "code": "exam",
                "display": "Exam"
              }
            ],
            "text": "Exam"
          }
        ],
        "code": {
          "coding": [
            {
              "system": "http://snomed.info/sct",
              "code": "26544005",
              "display": "Muscle weakness"
            }
          ],
          "text": "Muscle Weakness"
        },
        "subject": {
          "reference": "Patient/1621d0c1-b6dc-449f-b8d8-506cf8c88874"
        },
        "encounter": {
          "reference": "Encounter/5a0062b7-e922-4ec6-96fe-bac8b43e2f58"
        },
        "effectivePeriod": {
          "start": "2024-10-16"
        },
        "valueBoolean": true,
        "note": [
          {
            "text": "Definition: https://snomed.info/id/26544005"
          }
        ]
      },
      "request": {
        "method": "POST",
        "url": "Observation"
      }
    },
    {
      "fullUrl": "urn:uuid:2701f0bd-69b3-494a-b7fe-d5f1e5f5d5d3",
      "resource": {
        "resourceType": "Observation",
        "id": "2701f0bd-69b3-494a-b7fe-d5f1e5f5d5d3",
        "status": "final",
        "category": [
          {
            "coding": [
              {
                "system": "http://terminology.hl7.org/CodeSystem/observation-category",
                "code": "exam",
                "display": "Exam"
              }
            ],
            "text": "Exam"
          }
        ],
        "code": {
          "coding": [
            {
              "system": "http://snomed.info/sct",
              "code": "25064002",
              "display": "Headache"
            }
          ],
          "text": "Headache"
        },
        "subject": {
          "reference": "Patient/1621d0c1-b6dc-449f-b8d8-506cf8c88874"
        },
        "encounter": {
          "reference": "Encounter/5a0062b7-e922-4ec6-96fe-bac8b43e2f58"
        },
        "effectivePeriod": {
          "start": "2024-10-16"
        },
        "valueBoolean": true,
        "note": [
          {
            "text": "Definition: https://snomed.info/id/25064002"
          }
        ]
      },
      "request": {
        "method": "POST",
        "url": "Observation"
      }
    },
    {
      "fullUrl": "urn:uuid:284af903-4a80-4dbe-b7d5-bf7336f27e60",
      "resource": {
        "resourceType": "Observation",
        "id": "284af903-4a80-4dbe-b7d5-bf7336f27e60",
        "status": "final",
        "category": [
          {
            "coding": [
              {
                "system": "http://terminology.hl7.org/CodeSystem/observation-category",
                "code": "exam",
                "display": "Exam"
              }
            ],
            "text": "Exam"
          }
        ],
        "code": {
          "coding": [
            {
              "system": "http://snomed.info/sct",
              "code": "84229001",
              "display": "Fatigue"
            }
          ],
          "text": "Fatigue"
        },
        "subject": {
          "reference": "Patient/1621d0c1-b6dc-449f-b8d8-506cf8c88874"
        },
        "encounter": {
          "reference": "Encounter/5a0062b7-e922-4ec6-96fe-bac8b43e2f58"
        },
        "effectivePeriod": {
          "start": "2024-10-16"
        },
        "valueBoolean": true,
        "note": [
          {
            "text": "Definition: https://snomed.info/id/84229001"
          }
        ]
      },
      "request": {
        "method": "POST",
        "url": "Observation"
      }
    },
    {
      "fullUrl": "urn:uuid:a6f6d1c7-62b3-45ab-9be0-97660c06c742",
      "resource": {
        "resourceType": "Observation",
        "id": "a6f6d1c7-62b3-45ab-9be0-97660c06c742",
        "status": "final",
        "category": [
          {
            "coding": [
              {
                "system": "http://terminology.hl7.org/CodeSystem/observation-category",
                "code": "vital-signs",
                "display": "Vital Signs"
              }
            ],
            "text": "Vital Signs"
          }
        ],
        "code": {
          "coding": [
            {
              "system": "http://loinc.org",
              "code": "18684-1",
              "display": "Blood pressure"
            }
          ],
          "text": "Blood Pressure"
        },
        "subject": {
          "reference": "Patient/1621d0c1-b6dc-449f-b8d8-506cf8c88874"
        },
        "encounter": {
          "reference": "Encounter/5a0062b7-e922-4ec6-96fe-bac8b43e2f58"
        },
        "effectiveDateTime": "2024-10-16",
        "valueQuantity": {
          "value": 120.0,
          "unit": "mmHg",
          "system": "http://unitsofmeasure.org",
          "code": "mmHg"
        },
        "interpretation": [
          {
            "coding": [
              {
                "system": "http://terminology.hl7.org/CodeSystem/v3-ObservationInterpretation",
                "code": "N",
                "display": "Normal"
              }
            ],
            "text": "Normal"
          }
        ]
      },
      "request": {
        "method": "POST",
        "url": "Observation"
      }
    },
    {
      "fullUrl": "urn:uuid:f11d91ed-30d3-4690-956d-14cba834c2e8",
      "resource": {
        "resourceType": "Observation",
        "id": "f11d91ed-30d3-4690-956d-14cba834c2e8",
        "status": "final",
        "category": [
          {
            "coding": [
              {
                "system": "http://terminology.hl7.org/CodeSystem/observation-category",
                "code": "vital-signs",
                "display": "Vital Signs"
              }
            ],
            "text": "Vital Signs"
          }
        ],
        "code": {
          "coding": [
            {
              "system": "http://loinc.org",
              "code": "62733-1",
              "display": "PhenX - respiratory - pulse oximetry - rest protocol 091101"
            }
          ],
          "text": "Pulse"
        },
        "subject": {
          "reference": "Patient/1621d0c1-b6dc-449f-b8d8-506cf8c88874"
        },
        "encounter": {
          "reference": "Encounter/5a0062b7-e922-4ec6-96fe-bac8b43e2f58"
        },
        "effectiveDateTime": "2024-10-16",
        "valueQuantity": {
          "value": 70.0,
          "unit": "bpm",
          "system": "http://unitsofmeasure.org",
          "code": "bpm"
        },
        "interpretation": [
          {
            "coding": [
              {
                "system": "http://terminology.hl7.org/CodeSystem/v3-ObservationInterpretation",
                "code": "N",
                "display": "Normal"
              }
            ],
            "text": "Normal"
          }
        ]
      },
      "request": {
        "method": "POST",
        "url": "Observation"
      }
    },
    {
      "fullUrl": "urn:uuid:944a5808-4d76-4a76-b5f0-ec559cc5c991",
      "resource": {
        "resourceType": "Observation",
        "id": "944a5808-4d76-4a76-b5f0-ec559cc5c991",
        "status": "final",
        "category": [
          {
            "coding": [
              {
                "system": "http://terminology.hl7.org/CodeSystem/observation-category",
                "code": "vital-signs",
                "display": "Vital Signs"
              }
            ],
            "text": "Vital Signs"
          }
        ],
        "code": {
          "coding": [
            {
              "system": "http://loinc.org",
              "code": "107102-6",
              "display": "BMI formula"
            }
          ],
          "text": "BMI"
        },
        "subject": {
          "reference": "Patient/1621d0c1-b6dc-449f-b8d8-506cf8c88874"
        },
        "encounter": {
          "reference": "Encounter/5a0062b7-e922-4ec6-96fe-bac8b43e2f58"
        },
        "effectiveDateTime": "2024-10-16",
        "valueQuantity": {
          "value": 22.5,
          "unit": "kg/m²",
          "system": "http://unitsofmeasure.org",
          "code": "kg/m²"
        },
        "interpretation": [
          {
            "coding": [
              {
                "system": "http://terminology.hl7.org/CodeSystem/v3-ObservationInterpretation",
                "code": "N",
                "display": "Normal"
              }
            ],
            "text": "Normal"
          }
        ]
      },
      "request": {
        "method": "POST",
        "url": "Observation"
      }
    },
    {
      "fullUrl": "urn:uuid:e714e536-56df-482c-9ac0-9c27c92a31d9",
      "resource": {
        "resourceType": "MedicationStatement",
        "id": "e714e536-56df-482c-9ac0-9c27c92a31d9",
        "status": "recorded",
        "medication": {
          "concept": {
            "coding": [
              {
                "system": "http://snomed.info/sct",
                "code": "412250002",
                "display": "Multivitamin agent"
              }
            ],
            "text": "Multivitamin"
          }
        },
        "subject": {
          "reference": "Patient/1621d0c1-b6dc-449f-b8d8-506cf8c88874"
        },
        "encounter": {
          "reference": "Encounter/5a0062b7-e922-4ec6-96fe-bac8b43e2f58"
        },
        "effectiveDateTime": "2024-10-16",
        "informationSource": [
          {
            "reference": "Patient/1621d0c1-b6dc-449f-b8d8-506cf8c88874"
          }
        ],
        "dosage": [
          {
            "text": "daily",
            "timing": {
              "repeat": {
                "frequency": 1,
                "period": 1.0,
                "periodUnit": "d"
              }
            }
          }
        ],
        "adherence": {
          "code": {
            "coding": [
              {
                "system": "http://hl7.org/fhir/CodeSystem/medication-statement-adherence",
                "code": "taking",
                "display": "Taking"
              }
            ]
          }
        }
      },
      "request": {
        "method": "POST",
        "url": "MedicationStatement"
      }
    },
    {
      "fullUrl": "urn:uuid:cabc1a10-5195-4fbc-ac02-7ecd91d8a35e",
      "resource": {
        "resourceType": "Encounter",
        "id": "cabc1a10-5195-4fbc-ac02-7ecd91d8a35e",
        "identifier": [
          {
            "use": "temp",
            "value": "Encounter_Emily Wilson_20251021093939"
          }
        ],
        "status": "completed",
        "priority": {
          "coding": [
            {
              "system": "http://snomed.info/sct",
              "code": "17621005",
              "display": "Normal"
            }
          ]
        },
        "type": [
          {
            "coding": [
              {
                "system": "http://snomed.info/sct",
                "code": "11429006",
                "display": "Consultation"
              }
            ]
          }
        ],
        "subject": {
          "reference": "Patient/1621d0c1-b6dc-449f-b8d8-506cf8c88874",
          "display": "Emily Wilson"
        }
      },
      "request": {
        "method": "POST",
        "url": "Encounter"
      }
    },
    {
      "fullUrl": "urn:uuid:abf82cc1-2142-4ec7-8e6b-b0f366fb8ff7",
      "resource": {
        "resourceType": "Observation",
        "id": "abf82cc1-2142-4ec7-8e6b-b0f366fb8ff7",
        "status": "final",
        "category": [
          {
            "coding": [
              {
                "system": "http://terminology.hl7.org/CodeSystem/observation-category",
                "code": "laboratory",
                "display": "Laboratory"
              }
            ],
            "text": "Laboratory"
          }
        ],
        "code": {
          "coding": [
            {
              "system": "http://loinc.org",
              "code": "34075-2",
              "display": "FDA insert Lab tests"
            }
          ],
          "text": "Laboratory Tests"
        },
        "subject": {
          "reference": "Patient/1621d0c1-b6dc-449f-b8d8-506cf8c88874"
        },
        "encounter": {
          "reference": "Encounter/cabc1a10-5195-4fbc-ac02-7ecd91d8a35e"
        },
        "effectiveDateTime": "2023-10-16",
        "interpretation": [
          {
            "coding": [
              {
                "system": "http://terminology.hl7.org/CodeSystem/v3-ObservationInterpretation",
                "code": "N",
                "display": "Normal"
              }
            ]
          }
        ],
        "note": [
          {
            "text": "Definition: https://loinc.org/34075-2/"
          }
        ]
      },
      "request": {
        "method": "POST",
        "url": "Observation"
      }
    },
    {
      "fullUrl": "urn:uuid:84145c94-d4c8-4115-8197-c9697228a831",
      "resource": {
        "resourceType": "List",
        "id": "84145c94-d4c8-4115-8197-c9697228a831",
        "contained": [
          {
            "resourceType": "FamilyMemberHistory",
            "id": "fmh-2",
            "status": "completed",
            "patient": {
              "reference": "Patient/1621d0c1-b6dc-449f-b8d8-506cf8c88874"
            },
            "relationship": {
              "coding": [
                {
                  "system": "http://snomed.info/sct",
                  "code": "72705000",
                  "display": "Mother"
                }
              ]
            },
            "deceasedBoolean": false,
            "condition": [
              {
                "code": {
                  "coding": [
                    {
                      "system": "http://snomed.info/sct",
                      "code": "266894000",
                      "display": "FH: Cardiovascular disease"
                    }
                  ]
                }
              }
            ]
          }
        ],
        "status": "current",
        "mode": "snapshot",
        "code": {
          "coding": [
            {
              "system": "http://loinc.org",
              "code": "8670-2",
              "display": "History of family member diseases"
            }
          ]
        },
        "subject": [
          {
            "reference": "Patient/1621d0c1-b6dc-449f-b8d8-506cf8c88874"
          }
        ],
        "note": [
          {
            "text": "Both parents are alive."
          }
        ],
        "entry": [
          {
            "item": {
              "reference": "#fmh-2"
            }
          }
        ]
      },
      "request": {
        "method": "POST",
        "url": "FamilyMemberHistory"
      }
    }
  ]
}