{
  "resourceType": "Bundle",
  "type": "transaction",
  "entry": [
    {
      "fullUrl": "urn:uuid:64e1a83a-b78e-4188-add5-10113c7bbe27",
      "resource": {
        "resourceType": "Patient",
        "id": "64e1a83a-b78e-4188-add5-10113c7bbe27",
        "name": [
          {
            "family": "Brooks",
            "given": [
              "Lucas"
            ]
          }
        ],
        "gender": "male",
        "birthDate": "2015-01-01",
        "address": [
          {}
        ]
      },
      "request": {
        "method": "POST",
        "url": "Patient"
      }
    },
    {
      "fullUrl": "urn:uuid:acd17b1b-b3b1-4bc2-9b61-f14a4f7ffb8c",
      "resource": {
        "resourceType": "Encounter",
        "id": "acd17b1b-b3b1-4bc2-9b61-f14a4f7ffb8c",
        "identifier": [
          {
            "use": "temp",
            "value": "Encounter_Lucas Brooks_20251020132749"
          }
        ],
        "status": "completed",
        "priority": {
          "coding": [
            {
              "system": "http://snomed.info/sct",
              "code": "17621005",
              "display": "Normal"
            }
          ]
        },
        "type": [
          {
            "coding": [
              {
                "system": "http://snomed.info/sct",
                "code": "11429006",
                "display": "Consultation"
              }
            ]
          }
        ],
        "subject": {
          "reference": "Patient/64e1a83a-b78e-4188-add5-10113c7bbe27",
          "display": "Lucas Brooks"
        },
        "reason": [
          {
            "value": [
              {
                "concept": {
                  "text": "complaints of mild clumsiness and difficulty with fine motor tasks"
                }
              }
            ]
          }
        ]
      },
      "request": {
        "method": "POST",
        "url": "Encounter"
      }
    },
    {
      "fullUrl": "urn:uuid:f32cf3f3-8281-47ac-bf78-7c1580189321",
      "resource": {
        "resourceType": "Observation",
        "id": "f32cf3f3-8281-47ac-bf78-7c1580189321",
        "status": "final",
        "category": [
          {
            "coding": [
              {
                "system": "http://terminology.hl7.org/CodeSystem/observation-category",
                "code": "laboratory",
                "display": "Laboratory"
              }
            ],
            "text": "Laboratory"
          }
        ],
        "code": {
          "coding": [
            {
              "system": "http://loinc.org",
              "code": "2428-1",
              "display": "Hcys SerPl-mCnc"
            }
          ],
          "text": "Homocysteine"
        },
        "subject": {
          "reference": "Patient/64e1a83a-b78e-4188-add5-10113c7bbe27"
        },
        "encounter": {
          "reference": "Encounter/acd17b1b-b3b1-4bc2-9b61-f14a4f7ffb8c"
        },
        "effectiveDateTime": "2025-10-16",
        "valueQuantity": {
          "value": 15.0,
          "unit": "µmol/L",
          "system": "http://unitsofmeasure.org",
          "code": "µmol/L"
        },
        "interpretation": [
          {
            "coding": [
              {
                "system": "http://terminology.hl7.org/CodeSystem/v3-ObservationInterpretation",
                "code": "H",
                "display": "High"
              }
            ]
          }
        ],
        "note": [
          {
            "text": "Definition: https://loinc.org/2428-1/"
          }
        ]
      },
      "request": {
        "method": "POST",
        "url": "Observation"
      }
    },
    {
      "fullUrl": "urn:uuid:8d8e2b10-2cb3-4ef4-b545-8c0983a453ae",
      "resource": {
        "resourceType": "Observation",
        "id": "8d8e2b10-2cb3-4ef4-b545-8c0983a453ae",
        "status": "final",
        "category": [
          {
            "coding": [
              {
                "system": "http://terminology.hl7.org/CodeSystem/observation-category",
                "code": "laboratory",
                "display": "Laboratory"
              }
            ],
            "text": "Laboratory"
          }
        ],
        "code": {
          "coding": [
            {
              "system": "http://loinc.org",
              "code": "2623-7",
              "display": "Methionine Ur-mCnc"
            }
          ],
          "text": "Methionine"
        },
        "subject": {
          "reference": "Patient/64e1a83a-b78e-4188-add5-10113c7bbe27"
        },
        "encounter": {
          "reference": "Encounter/acd17b1b-b3b1-4bc2-9b61-f14a4f7ffb8c"
        },
        "effectiveDateTime": "2025-10-16",
        "valueQuantity": {
          "value": 25.0,
          "unit": "µmol/L",
          "system": "http://unitsofmeasure.org",
          "code": "µmol/L"
        },
        "note": [
          {
            "text": "Definition: https://loinc.org/2623-7/"
          }
        ]
      },
      "request": {
        "method": "POST",
        "url": "Observation"
      }
    },
    {
      "fullUrl": "urn:uuid:8c598f4e-20a6-4876-a12f-ed838035e928",
      "resource": {
        "resourceType": "Observation",
        "id": "8c598f4e-20a6-4876-a12f-ed838035e928",
        "status": "final",
        "category": [
          {
            "coding": [
              {
                "system": "http://terminology.hl7.org/CodeSystem/observation-category",
                "code": "laboratory",
                "display": "Laboratory"
              }
            ],
            "text": "Laboratory"
          }
        ],
        "code": {
          "coding": [
            {
              "system": "http://loinc.org",
              "code": "58410-2",
              "display": "Complete blood count panel"
            }
          ],
          "text": "Complete Blood Count"
        },
        "subject": {
          "reference": "Patient/64e1a83a-b78e-4188-add5-10113c7bbe27"
        },
        "encounter": {
          "reference": "Encounter/acd17b1b-b3b1-4bc2-9b61-f14a4f7ffb8c"
        },
        "effectiveDateTime": "2025-10-16",
        "interpretation": [
          {
            "coding": [
              {
                "system": "http://terminology.hl7.org/CodeSystem/v3-ObservationInterpretation",
                "code": "N",
                "display": "Normal"
              }
            ]
          }
        ],
        "note": [
          {
            "text": "Definition: https://loinc.org/58410-2/"
          }
        ]
      },
      "request": {
        "method": "POST",
        "url": "Observation"
      }
    },
    {
      "fullUrl": "urn:uuid:769e117f-c27e-4f88-803c-7d2432dfc004",
      "resource": {
        "resourceType": "Observation",
        "id": "769e117f-c27e-4f88-803c-7d2432dfc004",
        "status": "final",
        "category": [
          {
            "coding": [
              {
                "system": "http://terminology.hl7.org/CodeSystem/observation-category",
                "code": "laboratory",
                "display": "Laboratory"
              }
            ],
            "text": "Laboratory"
          }
        ],
        "code": {
          "coding": [
            {
              "system": "http://loinc.org",
              "code": "24338-6",
              "display": "Gas panel"
            }
          ],
          "text": "Blood Chemistry"
        },
        "subject": {
          "reference": "Patient/64e1a83a-b78e-4188-add5-10113c7bbe27"
        },
        "encounter": {
          "reference": "Encounter/acd17b1b-b3b1-4bc2-9b61-f14a4f7ffb8c"
        },
        "effectiveDateTime": "2025-10-16",
        "interpretation": [
          {
            "coding": [
              {
                "system": "http://terminology.hl7.org/CodeSystem/v3-ObservationInterpretation",
                "code": "N",
                "display": "Normal"
              }
            ]
          }
        ],
        "note": [
          {
            "text": "Definition: https://loinc.org/24338-6/"
          }
        ]
      },
      "request": {
        "method": "POST",
        "url": "Observation"
      }
    },
    {
      "fullUrl": "urn:uuid:5566989f-7122-4a2a-8b63-6ef811175459",
      "resource": {
        "resourceType": "Observation",
        "id": "5566989f-7122-4a2a-8b63-6ef811175459",
        "status": "final",
        "category": [
          {
            "coding": [
              {
                "system": "http://terminology.hl7.org/CodeSystem/observation-category",
                "code": "exam",
                "display": "Exam"
              }
            ],
            "text": "Exam"
          }
        ],
        "code": {
          "coding": [
            {
              "system": "http://snomed.info/sct",
              "code": "7006003",
              "display": "Clumsiness"
            }
          ],
          "text": "Clumsiness"
        },
        "subject": {
          "reference": "Patient/64e1a83a-b78e-4188-add5-10113c7bbe27"
        },
        "encounter": {
          "reference": "Encounter/acd17b1b-b3b1-4bc2-9b61-f14a4f7ffb8c"
        },
        "effectivePeriod": {
          "start": "2025-10-16"
        },
        "valueBoolean": true,
        "interpretation": [
          {
            "coding": [
              {
                "system": "http://terminology.hl7.org/CodeSystem/v3-ObservationInterpretation",
                "code": "A",
                "display": "Abnormal"
              }
            ],
            "text": "Abnormal"
          }
        ],
        "note": [
          {
            "text": "Definition: https://snomed.info/id/7006003"
          }
        ]
      },
      "request": {
        "method": "POST",
        "url": "Observation"
      }
    },
    {
      "fullUrl": "urn:uuid:16e8a1cf-05a4-4071-8b1d-77f9d69cf46d",
      "resource": {
        "resourceType": "Observation",
        "id": "16e8a1cf-05a4-4071-8b1d-77f9d69cf46d",
        "status": "final",
        "category": [
          {
            "coding": [
              {
                "system": "http://terminology.hl7.org/CodeSystem/observation-category",
                "code": "exam",
                "display": "Exam"
              }
            ],
            "text": "Exam"
          }
        ],
        "code": {
          "coding": [
            {
              "system": "http://snomed.info/sct",
              "code": "737351007",
              "display": "Difficulty with household tasks"
            }
          ],
          "text": "Difficulty with fine motor tasks"
        },
        "subject": {
          "reference": "Patient/64e1a83a-b78e-4188-add5-10113c7bbe27"
        },
        "encounter": {
          "reference": "Encounter/acd17b1b-b3b1-4bc2-9b61-f14a4f7ffb8c"
        },
        "effectivePeriod": {
          "start": "2025-10-16"
        },
        "valueBoolean": true,
        "interpretation": [
          {
            "coding": [
              {
                "system": "http://terminology.hl7.org/CodeSystem/v3-ObservationInterpretation",
                "code": "A",
                "display": "Abnormal"
              }
            ],
            "text": "Abnormal"
          }
        ],
        "note": [
          {
            "text": "Definition: https://snomed.info/id/737351007"
          }
        ]
      },
      "request": {
        "method": "POST",
        "url": "Observation"
      }
    },
    {
      "fullUrl": "urn:uuid:fb98ace1-3550-4344-9bab-6b959286c1dc",
      "resource": {
        "resourceType": "Observation",
        "id": "fb98ace1-3550-4344-9bab-6b959286c1dc",
        "status": "final",
        "category": [
          {
            "coding": [
              {
                "system": "http://terminology.hl7.org/CodeSystem/observation-category",
                "code": "exam",
                "display": "Exam"
              }
            ],
            "text": "Exam"
          }
        ],
        "code": {
          "coding": [
            {
              "system": "http://snomed.info/sct",
              "code": "161129001",
              "display": "Learning difficulties"
            }
          ],
          "text": "Learning difficulties"
        },
        "subject": {
          "reference": "Patient/64e1a83a-b78e-4188-add5-10113c7bbe27"
        },
        "encounter": {
          "reference": "Encounter/acd17b1b-b3b1-4bc2-9b61-f14a4f7ffb8c"
        },
        "effectivePeriod": {
          "start": "2025-10-16"
        },
        "valueBoolean": true,
        "interpretation": [
          {
            "coding": [
              {
                "system": "http://terminology.hl7.org/CodeSystem/v3-ObservationInterpretation",
                "code": "A",
                "display": "Abnormal"
              }
            ],
            "text": "Abnormal"
          }
        ],
        "note": [
          {
            "text": "Definition: https://snomed.info/id/161129001"
          }
        ]
      },
      "request": {
        "method": "POST",
        "url": "Observation"
      }
    },
    {
      "fullUrl": "urn:uuid:4bc63a17-b7bd-4086-aea6-180456730ca7",
      "resource": {
        "resourceType": "Observation",
        "id": "4bc63a17-b7bd-4086-aea6-180456730ca7",
        "status": "final",
        "category": [
          {
            "coding": [
              {
                "system": "http://terminology.hl7.org/CodeSystem/observation-category",
                "code": "exam",
                "display": "Exam"
              }
            ],
            "text": "Exam"
          }
        ],
        "code": {
          "coding": [
            {
              "system": "http://snomed.info/sct",
              "code": "64379006",
              "display": "Decrease in appetite"
            }
          ],
          "text": "Decrease in appetite"
        },
        "subject": {
          "reference": "Patient/64e1a83a-b78e-4188-add5-10113c7bbe27"
        },
        "encounter": {
          "reference": "Encounter/acd17b1b-b3b1-4bc2-9b61-f14a4f7ffb8c"
        },
        "effectivePeriod": {
          "start": "2025-10-16"
        },
        "valueBoolean": true,
        "interpretation": [
          {
            "coding": [
              {
                "system": "http://terminology.hl7.org/CodeSystem/v3-ObservationInterpretation",
                "code": "A",
                "display": "Abnormal"
              }
            ],
            "text": "Abnormal"
          }
        ],
        "note": [
          {
            "text": "Definition: https://snomed.info/id/64379006"
          }
        ]
      },
      "request": {
        "method": "POST",
        "url": "Observation"
      }
    },
    {
      "fullUrl": "urn:uuid:dcb2ebc1-9375-43f5-88f7-1fcf815b7d93",
      "resource": {
        "resourceType": "Observation",
        "id": "dcb2ebc1-9375-43f5-88f7-1fcf815b7d93",
        "status": "final",
        "category": [
          {
            "coding": [
              {
                "system": "http://terminology.hl7.org/CodeSystem/observation-category",
                "code": "vital-signs",
                "display": "Vital Signs"
              }
            ],
            "text": "Vital Signs"
          }
        ],
        "code": {
          "coding": [
            {
              "system": "http://loinc.org",
              "code": "8310-5",
              "display": "Body temperature"
            }
          ],
          "text": "temperature"
        },
        "subject": {
          "reference": "Patient/64e1a83a-b78e-4188-add5-10113c7bbe27"
        },
        "encounter": {
          "reference": "Encounter/acd17b1b-b3b1-4bc2-9b61-f14a4f7ffb8c"
        },
        "effectiveDateTime": "2025-10-16",
        "valueQuantity": {
          "value": 98.6,
          "unit": "°F",
          "system": "http://unitsofmeasure.org",
          "code": "°F"
        },
        "interpretation": [
          {
            "coding": [
              {
                "system": "http://terminology.hl7.org/CodeSystem/v3-ObservationInterpretation",
                "code": "N",
                "display": "Normal"
              }
            ],
            "text": "Normal"
          }
        ]
      },
      "request": {
        "method": "POST",
        "url": "Observation"
      }
    },
    {
      "fullUrl": "urn:uuid:c598b78f-6c4f-469c-92cd-83568d5b2831",
      "resource": {
        "resourceType": "Observation",
        "id": "c598b78f-6c4f-469c-92cd-83568d5b2831",
        "status": "final",
        "category": [
          {
            "coding": [
              {
                "system": "http://terminology.hl7.org/CodeSystem/observation-category",
                "code": "vital-signs",
                "display": "Vital Signs"
              }
            ],
            "text": "Vital Signs"
          }
        ],
        "code": {
          "coding": [
            {
              "system": "http://loinc.org",
              "code": "8337-8",
              "display": "Bdy weight special circumstances"
            }
          ],
          "text": "weight"
        },
        "subject": {
          "reference": "Patient/64e1a83a-b78e-4188-add5-10113c7bbe27"
        },
        "encounter": {
          "reference": "Encounter/acd17b1b-b3b1-4bc2-9b61-f14a4f7ffb8c"
        },
        "effectiveDateTime": "2025-10-16",
        "valueQuantity": {
          "value": 32.0,
          "unit": "kg",
          "system": "http://unitsofmeasure.org",
          "code": "kg"
        },
        "interpretation": [
          {
            "coding": [
              {
                "system": "http://terminology.hl7.org/CodeSystem/v3-ObservationInterpretation",
                "code": "N",
                "display": "Normal"
              }
            ],
            "text": "Normal"
          }
        ]
      },
      "request": {
        "method": "POST",
        "url": "Observation"
      }
    },
    {
      "fullUrl": "urn:uuid:004086ad-2ec8-4440-92a7-05525a781939",
      "resource": {
        "resourceType": "Observation",
        "id": "004086ad-2ec8-4440-92a7-05525a781939",
        "status": "final",
        "category": [
          {
            "coding": [
              {
                "system": "http://terminology.hl7.org/CodeSystem/observation-category",
                "code": "vital-signs",
                "display": "Vital Signs"
              }
            ],
            "text": "Vital Signs"
          }
        ],
        "code": {
          "coding": [
            {
              "system": "http://loinc.org",
              "code": "92998-4",
              "display": "Lower segment"
            }
          ],
          "text": "height"
        },
        "subject": {
          "reference": "Patient/64e1a83a-b78e-4188-add5-10113c7bbe27"
        },
        "encounter": {
          "reference": "Encounter/acd17b1b-b3b1-4bc2-9b61-f14a4f7ffb8c"
        },
        "effectiveDateTime": "2025-10-16",
        "valueQuantity": {
          "value": 140.0,
          "unit": "cm",
          "system": "http://unitsofmeasure.org",
          "code": "cm"
        },
        "interpretation": [
          {
            "coding": [
              {
                "system": "http://terminology.hl7.org/CodeSystem/v3-ObservationInterpretation",
                "code": "N",
                "display": "Normal"
              }
            ],
            "text": "Normal"
          }
        ]
      },
      "request": {
        "method": "POST",
        "url": "Observation"
      }
    },
    {
      "fullUrl": "urn:uuid:bcf5be7a-c361-4421-96fc-8e0d0939d307",
      "resource": {
        "resourceType": "Observation",
        "id": "bcf5be7a-c361-4421-96fc-8e0d0939d307",
        "status": "final",
        "category": [
          {
            "coding": [
              {
                "system": "http://terminology.hl7.org/CodeSystem/observation-category",
                "code": "vital-signs",
                "display": "Vital Signs"
              }
            ],
            "text": "Vital Signs"
          }
        ],
        "code": {
          "coding": [
            {
              "system": "http://loinc.org",
              "code": "107102-6",
              "display": "BMI formula"
            }
          ],
          "text": "BMI"
        },
        "subject": {
          "reference": "Patient/64e1a83a-b78e-4188-add5-10113c7bbe27"
        },
        "encounter": {
          "reference": "Encounter/acd17b1b-b3b1-4bc2-9b61-f14a4f7ffb8c"
        },
        "effectiveDateTime": "2025-10-16",
        "interpretation": [
          {
            "coding": [
              {
                "system": "http://terminology.hl7.org/CodeSystem/v3-ObservationInterpretation",
                "code": "N",
                "display": "Normal"
              }
            ],
            "text": "Normal"
          }
        ]
      },
      "request": {
        "method": "POST",
        "url": "Observation"
      }
    },
    {
      "fullUrl": "urn:uuid:3ffde31e-651f-49cb-9982-acc592a6643c",
      "resource": {
        "resourceType": "Observation",
        "id": "3ffde31e-651f-49cb-9982-acc592a6643c",
        "status": "final",
        "category": [
          {
            "coding": [
              {
                "system": "http://terminology.hl7.org/CodeSystem/observation-category",
                "code": "vital-signs",
                "display": "Vital Signs"
              }
            ],
            "text": "Vital Signs"
          }
        ],
        "code": {
          "coding": [
            {
              "system": "http://loinc.org",
              "code": "11753-1",
              "display": "EFW from AC+HC"
            }
          ],
          "text": "head_circumference"
        },
        "subject": {
          "reference": "Patient/64e1a83a-b78e-4188-add5-10113c7bbe27"
        },
        "encounter": {
          "reference": "Encounter/acd17b1b-b3b1-4bc2-9b61-f14a4f7ffb8c"
        },
        "effectiveDateTime": "2025-10-16",
        "valueQuantity": {
          "value": 54.0,
          "unit": "cm",
          "system": "http://unitsofmeasure.org",
          "code": "cm"
        },
        "interpretation": [
          {
            "coding": [
              {
                "system": "http://terminology.hl7.org/CodeSystem/v3-ObservationInterpretation",
                "code": "L",
                "display": "Low"
              }
            ],
            "text": "Low"
          }
        ]
      },
      "request": {
        "method": "POST",
        "url": "Observation"
      }
    },
    {
      "fullUrl": "urn:uuid:5e98814c-da32-4cca-89b9-4b2a5b7529d0",
      "resource": {
        "resourceType": "Observation",
        "id": "5e98814c-da32-4cca-89b9-4b2a5b7529d0",
        "status": "final",
        "category": [
          {
            "coding": [
              {
                "system": "http://terminology.hl7.org/CodeSystem/observation-category",
                "code": "vital-signs",
                "display": "Vital Signs"
              }
            ],
            "text": "Vital Signs"
          }
        ],
        "code": {
          "coding": [
            {
              "system": "http://loinc.org",
              "code": "2717-7",
              "display": "OxyHgb MFr Plas"
            }
          ],
          "text": "oxygen_saturation"
        },
        "subject": {
          "reference": "Patient/64e1a83a-b78e-4188-add5-10113c7bbe27"
        },
        "encounter": {
          "reference": "Encounter/acd17b1b-b3b1-4bc2-9b61-f14a4f7ffb8c"
        },
        "effectiveDateTime": "2025-10-16",
        "valueQuantity": {
          "value": 98.0,
          "unit": "%",
          "system": "http://unitsofmeasure.org",
          "code": "%"
        },
        "interpretation": [
          {
            "coding": [
              {
                "system": "http://terminology.hl7.org/CodeSystem/v3-ObservationInterpretation",
                "code": "N",
                "display": "Normal"
              }
            ],
            "text": "Normal"
          }
        ]
      },
      "request": {
        "method": "POST",
        "url": "Observation"
      }
    },
    {
      "fullUrl": "urn:uuid:365f0d66-32e1-4d82-93db-7b01a001227c",
      "resource": {
        "resourceType": "Encounter",
        "id": "365f0d66-32e1-4d82-93db-7b01a001227c",
        "identifier": [
          {
            "use": "temp",
            "value": "Encounter_Lucas Brooks_20251020132800"
          }
        ],
        "status": "completed",
        "priority": {
          "coding": [
            {
              "system": "http://snomed.info/sct",
              "code": "17621005",
              "display": "Normal"
            }
          ]
        },
        "type": [
          {
            "coding": [
              {
                "system": "http://snomed.info/sct",
                "code": "11429006",
                "display": "Consultation"
              }
            ]
          }
        ],
        "subject": {
          "reference": "Patient/64e1a83a-b78e-4188-add5-10113c7bbe27",
          "display": "Lucas Brooks"
        },
        "reason": [
          {
            "value": [
              {
                "concept": {
                  "text": "routine check-up"
                }
              }
            ]
          }
        ]
      },
      "request": {
        "method": "POST",
        "url": "Encounter"
      }
    },
    {
      "fullUrl": "urn:uuid:b5f15b5d-8c40-4839-867f-5a2040f8e55c",
      "resource": {
        "resourceType": "List",
        "id": "b5f15b5d-8c40-4839-867f-5a2040f8e55c",
        "contained": [
          {
            "resourceType": "FamilyMemberHistory",
            "id": "fmh-3",
            "status": "completed",
            "patient": {
              "reference": "Patient/64e1a83a-b78e-4188-add5-10113c7bbe27"
            },
            "relationship": {
              "coding": [
                {
                  "system": "http://snomed.info/sct",
                  "code": "66839005",
                  "display": "Father"
                }
              ]
            },
            "deceasedBoolean": false,
            "condition": []
          }
        ],
        "status": "current",
        "mode": "snapshot",
        "code": {
          "coding": [
            {
              "system": "http://loinc.org",
              "code": "8670-2",
              "display": "History of family member diseases"
            }
          ]
        },
        "subject": [
          {
            "reference": "Patient/64e1a83a-b78e-4188-add5-10113c7bbe27"
          }
        ],
        "note": [
          {
            "text": "Both parents are alive and healthy."
          }
        ],
        "entry": [
          {
            "item": {
              "reference": "#fmh-3"
            }
          }
        ]
      },
      "request": {
        "method": "POST",
        "url": "FamilyMemberHistory"
      }
    }
  ]
}