{
  "resourceType": "Bundle",
  "type": "transaction",
  "entry": [
    {
      "fullUrl": "urn:uuid:77dbdfb7-4cd0-4397-8288-deb1dfe7d5a8",
      "resource": {
        "resourceType": "Patient",
        "id": "77dbdfb7-4cd0-4397-8288-deb1dfe7d5a8",
        "name": [
          {
            "family": "Thompson",
            "given": [
              "Sarah"
            ]
          }
        ],
        "gender": "female",
        "birthDate": "1983-07-05",
        "address": [
          {}
        ]
      },
      "request": {
        "method": "POST",
        "url": "Patient"
      }
    },
    {
      "fullUrl": "urn:uuid:6cb4cf3c-7f3c-44b6-9bf9-b8e75c182e60",
      "resource": {
        "resourceType": "Encounter",
        "id": "6cb4cf3c-7f3c-44b6-9bf9-b8e75c182e60",
        "identifier": [
          {
            "use": "temp",
            "value": "Encounter_Sarah Thompson_20251023095154"
          }
        ],
        "status": "completed",
        "priority": {
          "coding": [
            {
              "system": "http://snomed.info/sct",
              "code": "17621005",
              "display": "Normal"
            }
          ]
        },
        "type": [
          {
            "coding": [
              {
                "system": "http://snomed.info/sct",
                "code": "11429006",
                "display": "Consultation"
              }
            ]
          }
        ],
        "subject": {
          "reference": "Patient/77dbdfb7-4cd0-4397-8288-deb1dfe7d5a8",
          "display": "Sarah Thompson"
        },
        "reason": [
          {
            "value": [
              {
                "concept": {
                  "text": "complaints of gradual onset of joint pain and swelling in her hands"
                }
              }
            ]
          }
        ]
      },
      "request": {
        "method": "POST",
        "url": "Encounter"
      }
    },
    {
      "fullUrl": "urn:uuid:ef464e36-93c1-4e38-8a83-42d4d702d02b",
      "resource": {
        "resourceType": "Observation",
        "id": "ef464e36-93c1-4e38-8a83-42d4d702d02b",
        "status": "final",
        "category": [
          {
            "coding": [
              {
                "system": "http://terminology.hl7.org/CodeSystem/observation-category",
                "code": "laboratory",
                "display": "Laboratory"
              }
            ],
            "text": "Laboratory"
          }
        ],
        "code": {
          "coding": [
            {
              "system": "http://loinc.org",
              "code": "74790-7",
              "display": "Glucose challenge panel"
            }
          ],
          "text": "Glucose"
        },
        "subject": {
          "reference": "Patient/77dbdfb7-4cd0-4397-8288-deb1dfe7d5a8"
        },
        "encounter": {
          "reference": "Encounter/6cb4cf3c-7f3c-44b6-9bf9-b8e75c182e60"
        },
        "effectiveDateTime": "2025-10-16",
        "valueQuantity": {
          "value": 5.8,
          "unit": "mmol/L",
          "system": "http://unitsofmeasure.org",
          "code": "mmol/L"
        },
        "interpretation": [
          {
            "coding": [
              {
                "system": "http://terminology.hl7.org/CodeSystem/v3-ObservationInterpretation",
                "code": "H",
                "display": "High"
              }
            ]
          }
        ],
        "note": [
          {
            "text": "Definition: https://loinc.org/74790-7/"
          }
        ]
      },
      "request": {
        "method": "POST",
        "url": "Observation"
      }
    },
    {
      "fullUrl": "urn:uuid:3959372b-41c8-4b6b-8ab2-696399c29fc6",
      "resource": {
        "resourceType": "Observation",
        "id": "3959372b-41c8-4b6b-8ab2-696399c29fc6",
        "status": "final",
        "category": [
          {
            "coding": [
              {
                "system": "http://terminology.hl7.org/CodeSystem/observation-category",
                "code": "exam",
                "display": "Exam"
              }
            ],
            "text": "Exam"
          }
        ],
        "code": {
          "coding": [
            {
              "system": "http://snomed.info/sct",
              "code": "57676002",
              "display": "Joint pain"
            }
          ],
          "text": "Joint pain"
        },
        "subject": {
          "reference": "Patient/77dbdfb7-4cd0-4397-8288-deb1dfe7d5a8"
        },
        "encounter": {
          "reference": "Encounter/6cb4cf3c-7f3c-44b6-9bf9-b8e75c182e60"
        },
        "effectivePeriod": {
          "start": "2025-10-16"
        },
        "valueBoolean": true,
        "note": [
          {
            "text": "Definition: https://snomed.info/id/57676002"
          }
        ]
      },
      "request": {
        "method": "POST",
        "url": "Observation"
      }
    },
    {
      "fullUrl": "urn:uuid:5e3b5886-dbe3-473b-a993-5332cbeecc0f",
      "resource": {
        "resourceType": "Observation",
        "id": "5e3b5886-dbe3-473b-a993-5332cbeecc0f",
        "status": "final",
        "category": [
          {
            "coding": [
              {
                "system": "http://terminology.hl7.org/CodeSystem/observation-category",
                "code": "exam",
                "display": "Exam"
              }
            ],
            "text": "Exam"
          }
        ],
        "code": {
          "coding": [
            {
              "system": "http://snomed.info/sct"
            }
          ],
          "text": "Headaches"
        },
        "subject": {
          "reference": "Patient/77dbdfb7-4cd0-4397-8288-deb1dfe7d5a8"
        },
        "encounter": {
          "reference": "Encounter/6cb4cf3c-7f3c-44b6-9bf9-b8e75c182e60"
        },
        "effectivePeriod": {
          "start": "2025-10-16"
        },
        "valueBoolean": true,
        "note": [
          {
            "text": "Definition: https://snomed.info/id/None"
          }
        ]
      },
      "request": {
        "method": "POST",
        "url": "Observation"
      }
    },
    {
      "fullUrl": "urn:uuid:938cb674-72db-4707-9219-7d94dae873cb",
      "resource": {
        "resourceType": "Observation",
        "id": "938cb674-72db-4707-9219-7d94dae873cb",
        "status": "final",
        "category": [
          {
            "coding": [
              {
                "system": "http://terminology.hl7.org/CodeSystem/observation-category",
                "code": "exam",
                "display": "Exam"
              }
            ],
            "text": "Exam"
          }
        ],
        "code": {
          "coding": [
            {
              "system": "http://snomed.info/sct",
              "code": "84229001",
              "display": "Fatigue"
            }
          ],
          "text": "Fatigue"
        },
        "subject": {
          "reference": "Patient/77dbdfb7-4cd0-4397-8288-deb1dfe7d5a8"
        },
        "encounter": {
          "reference": "Encounter/6cb4cf3c-7f3c-44b6-9bf9-b8e75c182e60"
        },
        "effectivePeriod": {
          "start": "2025-10-16"
        },
        "valueBoolean": true,
        "note": [
          {
            "text": "Definition: https://snomed.info/id/84229001"
          }
        ]
      },
      "request": {
        "method": "POST",
        "url": "Observation"
      }
    },
    {
      "fullUrl": "urn:uuid:e9f55e87-d7c8-4b5a-a80b-aea105b4a8e0",
      "resource": {
        "resourceType": "Observation",
        "id": "e9f55e87-d7c8-4b5a-a80b-aea105b4a8e0",
        "status": "final",
        "category": [
          {
            "coding": [
              {
                "system": "http://terminology.hl7.org/CodeSystem/observation-category",
                "code": "vital-signs",
                "display": "Vital Signs"
              }
            ],
            "text": "Vital Signs"
          }
        ],
        "code": {
          "coding": [
            {
              "system": "http://loinc.org",
              "code": "8310-5",
              "display": "Body temperature"
            }
          ],
          "text": "temperature"
        },
        "subject": {
          "reference": "Patient/77dbdfb7-4cd0-4397-8288-deb1dfe7d5a8"
        },
        "encounter": {
          "reference": "Encounter/6cb4cf3c-7f3c-44b6-9bf9-b8e75c182e60"
        },
        "effectiveDateTime": "2025-10-16",
        "valueQuantity": {
          "value": 36.8,
          "unit": "degrees Celsius",
          "system": "http://unitsofmeasure.org",
          "code": "degrees Celsius"
        },
        "interpretation": [
          {
            "coding": [
              {
                "system": "http://terminology.hl7.org/CodeSystem/v3-ObservationInterpretation",
                "code": "N",
                "display": "Normal"
              }
            ],
            "text": "Normal"
          }
        ]
      },
      "request": {
        "method": "POST",
        "url": "Observation"
      }
    },
    {
      "fullUrl": "urn:uuid:bdc0d092-3e1b-4a72-8f5b-e44572fe6863",
      "resource": {
        "resourceType": "Observation",
        "id": "bdc0d092-3e1b-4a72-8f5b-e44572fe6863",
        "status": "final",
        "category": [
          {
            "coding": [
              {
                "system": "http://terminology.hl7.org/CodeSystem/observation-category",
                "code": "vital-signs",
                "display": "Vital Signs"
              }
            ],
            "text": "Vital Signs"
          }
        ],
        "code": {
          "coding": [
            {
              "system": "http://loinc.org",
              "code": "62733-1",
              "display": "PhenX - respiratory - pulse oximetry - rest protocol 091101"
            }
          ],
          "text": "pulse"
        },
        "subject": {
          "reference": "Patient/77dbdfb7-4cd0-4397-8288-deb1dfe7d5a8"
        },
        "encounter": {
          "reference": "Encounter/6cb4cf3c-7f3c-44b6-9bf9-b8e75c182e60"
        },
        "effectiveDateTime": "2025-10-16",
        "valueQuantity": {
          "value": 72.0,
          "unit": "beats per minute",
          "system": "http://unitsofmeasure.org",
          "code": "beats per minute"
        },
        "interpretation": [
          {
            "coding": [
              {
                "system": "http://terminology.hl7.org/CodeSystem/v3-ObservationInterpretation",
                "code": "N",
                "display": "Normal"
              }
            ],
            "text": "Normal"
          }
        ]
      },
      "request": {
        "method": "POST",
        "url": "Observation"
      }
    },
    {
      "fullUrl": "urn:uuid:2ac822fc-bd91-4353-8a66-2c894379de1f",
      "resource": {
        "resourceType": "Observation",
        "id": "2ac822fc-bd91-4353-8a66-2c894379de1f",
        "status": "final",
        "category": [
          {
            "coding": [
              {
                "system": "http://terminology.hl7.org/CodeSystem/observation-category",
                "code": "vital-signs",
                "display": "Vital Signs"
              }
            ],
            "text": "Vital Signs"
          }
        ],
        "code": {
          "coding": [
            {
              "system": "http://loinc.org",
              "code": "18684-1",
              "display": "Blood pressure"
            }
          ],
          "text": "blood pressure"
        },
        "subject": {
          "reference": "Patient/77dbdfb7-4cd0-4397-8288-deb1dfe7d5a8"
        },
        "encounter": {
          "reference": "Encounter/6cb4cf3c-7f3c-44b6-9bf9-b8e75c182e60"
        },
        "effectiveDateTime": "2025-10-16",
        "interpretation": [
          {
            "coding": [
              {
                "system": "http://terminology.hl7.org/CodeSystem/v3-ObservationInterpretation",
                "code": "N",
                "display": "Normal"
              }
            ],
            "text": "Normal"
          }
        ]
      },
      "request": {
        "method": "POST",
        "url": "Observation"
      }
    },
    {
      "fullUrl": "urn:uuid:1a646b17-3103-414b-a48c-536cc08dc6bf",
      "resource": {
        "resourceType": "Observation",
        "id": "1a646b17-3103-414b-a48c-536cc08dc6bf",
        "status": "final",
        "category": [
          {
            "coding": [
              {
                "system": "http://terminology.hl7.org/CodeSystem/observation-category",
                "code": "vital-signs",
                "display": "Vital Signs"
              }
            ],
            "text": "Vital Signs"
          }
        ],
        "code": {
          "coding": [
            {
              "system": "http://loinc.org",
              "code": "9279-1",
              "display": "Resp rate"
            }
          ],
          "text": "respiratory rate"
        },
        "subject": {
          "reference": "Patient/77dbdfb7-4cd0-4397-8288-deb1dfe7d5a8"
        },
        "encounter": {
          "reference": "Encounter/6cb4cf3c-7f3c-44b6-9bf9-b8e75c182e60"
        },
        "effectiveDateTime": "2025-10-16",
        "valueQuantity": {
          "value": 16.0,
          "unit": "breaths per minute",
          "system": "http://unitsofmeasure.org",
          "code": "breaths per minute"
        },
        "interpretation": [
          {
            "coding": [
              {
                "system": "http://terminology.hl7.org/CodeSystem/v3-ObservationInterpretation",
                "code": "N",
                "display": "Normal"
              }
            ],
            "text": "Normal"
          }
        ]
      },
      "request": {
        "method": "POST",
        "url": "Observation"
      }
    },
    {
      "fullUrl": "urn:uuid:7e98adae-52b2-4815-b46e-e36f5ce72794",
      "resource": {
        "resourceType": "Observation",
        "id": "7e98adae-52b2-4815-b46e-e36f5ce72794",
        "status": "final",
        "category": [
          {
            "coding": [
              {
                "system": "http://terminology.hl7.org/CodeSystem/observation-category",
                "code": "vital-signs",
                "display": "Vital Signs"
              }
            ],
            "text": "Vital Signs"
          }
        ],
        "code": {
          "coding": [
            {
              "system": "http://loinc.org",
              "code": "8337-8",
              "display": "Bdy weight special circumstances"
            }
          ],
          "text": "weight"
        },
        "subject": {
          "reference": "Patient/77dbdfb7-4cd0-4397-8288-deb1dfe7d5a8"
        },
        "encounter": {
          "reference": "Encounter/6cb4cf3c-7f3c-44b6-9bf9-b8e75c182e60"
        },
        "effectiveDateTime": "2025-10-16",
        "valueQuantity": {
          "value": 65.0,
          "unit": "kilograms",
          "system": "http://unitsofmeasure.org",
          "code": "kilograms"
        },
        "interpretation": [
          {
            "coding": [
              {
                "system": "http://terminology.hl7.org/CodeSystem/v3-ObservationInterpretation",
                "code": "N",
                "display": "Normal"
              }
            ],
            "text": "Normal"
          }
        ]
      },
      "request": {
        "method": "POST",
        "url": "Observation"
      }
    },
    {
      "fullUrl": "urn:uuid:0afb0315-98cd-40ea-88e0-5df1f8764a1f",
      "resource": {
        "resourceType": "Observation",
        "id": "0afb0315-98cd-40ea-88e0-5df1f8764a1f",
        "status": "final",
        "category": [
          {
            "coding": [
              {
                "system": "http://terminology.hl7.org/CodeSystem/observation-category",
                "code": "vital-signs",
                "display": "Vital Signs"
              }
            ],
            "text": "Vital Signs"
          }
        ],
        "code": {
          "coding": [
            {
              "system": "http://loinc.org",
              "code": "92998-4",
              "display": "Lower segment"
            }
          ],
          "text": "height"
        },
        "subject": {
          "reference": "Patient/77dbdfb7-4cd0-4397-8288-deb1dfe7d5a8"
        },
        "encounter": {
          "reference": "Encounter/6cb4cf3c-7f3c-44b6-9bf9-b8e75c182e60"
        },
        "effectiveDateTime": "2025-10-16",
        "valueQuantity": {
          "value": 165.0,
          "unit": "centimeters",
          "system": "http://unitsofmeasure.org",
          "code": "centimeters"
        },
        "interpretation": [
          {
            "coding": [
              {
                "system": "http://terminology.hl7.org/CodeSystem/v3-ObservationInterpretation",
                "code": "N",
                "display": "Normal"
              }
            ],
            "text": "Normal"
          }
        ]
      },
      "request": {
        "method": "POST",
        "url": "Observation"
      }
    },
    {
      "fullUrl": "urn:uuid:47a2d186-f033-4ab9-a225-3c99e2f1ac7a",
      "resource": {
        "resourceType": "Observation",
        "id": "47a2d186-f033-4ab9-a225-3c99e2f1ac7a",
        "status": "final",
        "category": [
          {
            "coding": [
              {
                "system": "http://terminology.hl7.org/CodeSystem/observation-category",
                "code": "vital-signs",
                "display": "Vital Signs"
              }
            ],
            "text": "Vital Signs"
          }
        ],
        "code": {
          "coding": [
            {
              "system": "http://loinc.org",
              "code": "107102-6",
              "display": "BMI formula"
            }
          ],
          "text": "BMI"
        },
        "subject": {
          "reference": "Patient/77dbdfb7-4cd0-4397-8288-deb1dfe7d5a8"
        },
        "encounter": {
          "reference": "Encounter/6cb4cf3c-7f3c-44b6-9bf9-b8e75c182e60"
        },
        "effectiveDateTime": "2025-10-16",
        "interpretation": [
          {
            "coding": [
              {
                "system": "http://terminology.hl7.org/CodeSystem/v3-ObservationInterpretation",
                "code": "N",
                "display": "Normal"
              }
            ],
            "text": "Normal"
          }
        ]
      },
      "request": {
        "method": "POST",
        "url": "Observation"
      }
    },
    {
      "fullUrl": "urn:uuid:a171e992-c51f-4f8e-8886-e9bc76025923",
      "resource": {
        "resourceType": "Observation",
        "id": "a171e992-c51f-4f8e-8886-e9bc76025923",
        "status": "final",
        "category": [
          {
            "coding": [
              {
                "system": "http://terminology.hl7.org/CodeSystem/observation-category",
                "code": "vital-signs",
                "display": "Vital Signs"
              }
            ],
            "text": "Vital Signs"
          }
        ],
        "code": {
          "coding": [
            {
              "system": "http://loinc.org",
              "code": "2717-7",
              "display": "OxyHgb MFr Plas"
            }
          ],
          "text": "oxygen saturation"
        },
        "subject": {
          "reference": "Patient/77dbdfb7-4cd0-4397-8288-deb1dfe7d5a8"
        },
        "encounter": {
          "reference": "Encounter/6cb4cf3c-7f3c-44b6-9bf9-b8e75c182e60"
        },
        "effectiveDateTime": "2025-10-16",
        "valueQuantity": {
          "value": 98.0,
          "unit": "%",
          "system": "http://unitsofmeasure.org",
          "code": "%"
        },
        "interpretation": [
          {
            "coding": [
              {
                "system": "http://terminology.hl7.org/CodeSystem/v3-ObservationInterpretation",
                "code": "N",
                "display": "Normal"
              }
            ],
            "text": "Normal"
          }
        ]
      },
      "request": {
        "method": "POST",
        "url": "Observation"
      }
    },
    {
      "fullUrl": "urn:uuid:476ff2b2-2925-4141-a816-daa5900c36cc",
      "resource": {
        "resourceType": "MedicationStatement",
        "id": "476ff2b2-2925-4141-a816-daa5900c36cc",
        "status": "recorded",
        "medication": {
          "concept": {
            "coding": [
              {
                "system": "http://snomed.info/sct",
                "code": "438681000124106",
                "display": "Multivitamin multimineral supplement"
              }
            ],
            "text": "multivitamin supplement"
          }
        },
        "subject": {
          "reference": "Patient/77dbdfb7-4cd0-4397-8288-deb1dfe7d5a8"
        },
        "encounter": {
          "reference": "Encounter/6cb4cf3c-7f3c-44b6-9bf9-b8e75c182e60"
        },
        "effectiveDateTime": "2025-10-16",
        "informationSource": [
          {
            "reference": "Patient/77dbdfb7-4cd0-4397-8288-deb1dfe7d5a8"
          }
        ],
        "dosage": [
          {
            "text": "once daily",
            "timing": {
              "repeat": {
                "frequency": 1,
                "period": 1.0,
                "periodUnit": "d"
              }
            }
          }
        ]
      },
      "request": {
        "method": "POST",
        "url": "MedicationStatement"
      }
    },
    {
      "fullUrl": "urn:uuid:823a076c-6896-4204-9e07-f661858e0f52",
      "resource": {
        "resourceType": "MedicationStatement",
        "id": "823a076c-6896-4204-9e07-f661858e0f52",
        "status": "recorded",
        "medication": {
          "concept": {
            "coding": [
              {
                "system": "http://snomed.info/sct",
                "code": "4741000124102",
                "display": "Over-the counter medication discontinued"
              }
            ],
            "text": "over-the-counter analgesic"
          }
        },
        "subject": {
          "reference": "Patient/77dbdfb7-4cd0-4397-8288-deb1dfe7d5a8"
        },
        "encounter": {
          "reference": "Encounter/6cb4cf3c-7f3c-44b6-9bf9-b8e75c182e60"
        },
        "effectiveDateTime": "2025-10-16",
        "informationSource": [
          {
            "reference": "Patient/77dbdfb7-4cd0-4397-8288-deb1dfe7d5a8"
          }
        ],
        "dosage": [
          {
            "text": "as needed"
          }
        ]
      },
      "request": {
        "method": "POST",
        "url": "MedicationStatement"
      }
    },
    {
      "fullUrl": "urn:uuid:988ce383-5bfd-4bd5-86dc-f10811538615",
      "resource": {
        "resourceType": "Encounter",
        "id": "988ce383-5bfd-4bd5-86dc-f10811538615",
        "identifier": [
          {
            "use": "temp",
            "value": "Encounter_Sarah Thompson_20251023095206"
          }
        ],
        "status": "completed",
        "priority": {
          "coding": [
            {
              "system": "http://snomed.info/sct",
              "code": "17621005",
              "display": "Normal"
            }
          ]
        },
        "type": [
          {
            "coding": [
              {
                "system": "http://snomed.info/sct",
                "code": "11429006",
                "display": "Consultation"
              }
            ]
          }
        ],
        "subject": {
          "reference": "Patient/77dbdfb7-4cd0-4397-8288-deb1dfe7d5a8",
          "display": "Sarah Thompson"
        },
        "reason": [
          {
            "value": [
              {
                "concept": {
                  "text": "similar complaints of joint pain and fatigue"
                }
              }
            ]
          }
        ]
      },
      "request": {
        "method": "POST",
        "url": "Encounter"
      }
    },
    {
      "fullUrl": "urn:uuid:8062cbc6-d2bc-450a-9438-63cb242be4ea",
      "resource": {
        "resourceType": "Observation",
        "id": "8062cbc6-d2bc-450a-9438-63cb242be4ea",
        "status": "final",
        "category": [
          {
            "coding": [
              {
                "system": "http://terminology.hl7.org/CodeSystem/observation-category",
                "code": "exam",
                "display": "Exam"
              }
            ],
            "text": "Exam"
          }
        ],
        "code": {
          "coding": [
            {
              "system": "http://snomed.info/sct",
              "code": "57676002",
              "display": "Joint pain"
            }
          ],
          "text": "Joint pain"
        },
        "subject": {
          "reference": "Patient/77dbdfb7-4cd0-4397-8288-deb1dfe7d5a8"
        },
        "encounter": {
          "reference": "Encounter/988ce383-5bfd-4bd5-86dc-f10811538615"
        },
        "effectivePeriod": {
          "start": "2025-08-16"
        },
        "valueBoolean": true,
        "note": [
          {
            "text": "Definition: https://snomed.info/id/57676002"
          }
        ]
      },
      "request": {
        "method": "POST",
        "url": "Observation"
      }
    },
    {
      "fullUrl": "urn:uuid:c2a8bf4c-5676-419d-9ddc-8fb60429c93c",
      "resource": {
        "resourceType": "Observation",
        "id": "c2a8bf4c-5676-419d-9ddc-8fb60429c93c",
        "status": "final",
        "category": [
          {
            "coding": [
              {
                "system": "http://terminology.hl7.org/CodeSystem/observation-category",
                "code": "exam",
                "display": "Exam"
              }
            ],
            "text": "Exam"
          }
        ],
        "code": {
          "coding": [
            {
              "system": "http://snomed.info/sct",
              "code": "84229001",
              "display": "Fatigue"
            }
          ],
          "text": "Fatigue"
        },
        "subject": {
          "reference": "Patient/77dbdfb7-4cd0-4397-8288-deb1dfe7d5a8"
        },
        "encounter": {
          "reference": "Encounter/988ce383-5bfd-4bd5-86dc-f10811538615"
        },
        "effectivePeriod": {
          "start": "2025-08-16"
        },
        "valueBoolean": true,
        "note": [
          {
            "text": "Definition: https://snomed.info/id/84229001"
          }
        ]
      },
      "request": {
        "method": "POST",
        "url": "Observation"
      }
    },
    {
      "fullUrl": "urn:uuid:9396e0c6-3aa0-4ca0-a874-4a01cab68751",
      "resource": {
        "resourceType": "Observation",
        "id": "9396e0c6-3aa0-4ca0-a874-4a01cab68751",
        "status": "final",
        "category": [
          {
            "coding": [
              {
                "system": "http://terminology.hl7.org/CodeSystem/observation-category",
                "code": "vital-signs",
                "display": "Vital Signs"
              }
            ],
            "text": "Vital Signs"
          }
        ],
        "code": {
          "coding": [
            {
              "system": "http://loinc.org",
              "code": "18684-1",
              "display": "Blood pressure"
            }
          ],
          "text": "blood pressure"
        },
        "subject": {
          "reference": "Patient/77dbdfb7-4cd0-4397-8288-deb1dfe7d5a8"
        },
        "encounter": {
          "reference": "Encounter/988ce383-5bfd-4bd5-86dc-f10811538615"
        },
        "effectiveDateTime": "2025-08-16",
        "interpretation": [
          {
            "coding": [
              {
                "system": "http://terminology.hl7.org/CodeSystem/v3-ObservationInterpretation",
                "code": "H",
                "display": "High"
              }
            ],
            "text": "High"
          }
        ]
      },
      "request": {
        "method": "POST",
        "url": "Observation"
      }
    },
    {
      "fullUrl": "urn:uuid:a1a20253-f615-45fa-b9a7-236e25db2967",
      "resource": {
        "resourceType": "List",
        "id": "a1a20253-f615-45fa-b9a7-236e25db2967",
        "contained": [
          {
            "resourceType": "FamilyMemberHistory",
            "id": "fmh-3",
            "status": "completed",
            "patient": {
              "reference": "Patient/77dbdfb7-4cd0-4397-8288-deb1dfe7d5a8"
            },
            "relationship": {
              "coding": [
                {
                  "system": "http://snomed.info/sct",
                  "code": "375005",
                  "display": "Sibling"
                }
              ]
            },
            "deceasedBoolean": false,
            "condition": []
          }
        ],
        "status": "current",
        "mode": "snapshot",
        "code": {
          "coding": [
            {
              "system": "http://loinc.org",
              "code": "8670-2",
              "display": "History of family member diseases"
            }
          ]
        },
        "subject": [
          {
            "reference": "Patient/77dbdfb7-4cd0-4397-8288-deb1dfe7d5a8"
          }
        ],
        "note": [
          {
            "text": "no known family history of endocrine disorders or cancers"
          }
        ],
        "entry": [
          {
            "item": {
              "reference": "#fmh-3"
            }
          }
        ]
      },
      "request": {
        "method": "POST",
        "url": "FamilyMemberHistory"
      }
    }
  ]
}