{
  "resourceType": "Bundle",
  "type": "transaction",
  "entry": [
    {
      "fullUrl": "urn:uuid:6314a332-601f-4ca6-b6b6-59197d8b4138",
      "resource": {
        "resourceType": "Patient",
        "id": "6314a332-601f-4ca6-b6b6-59197d8b4138",
        "name": [
          {
            "given": [
              null
            ]
          }
        ],
        "gender": "female",
        "birthDate": "2006-01-01",
        "address": [
          {}
        ]
      },
      "request": {
        "method": "POST",
        "url": "Patient"
      }
    },
    {
      "fullUrl": "urn:uuid:563c60e7-a638-49bc-adfb-4c1fe9cb4e5e",
      "resource": {
        "resourceType": "Encounter",
        "id": "563c60e7-a638-49bc-adfb-4c1fe9cb4e5e",
        "identifier": [
          {
            "use": "temp",
            "value": "Encounter_None None_20251021115720"
          }
        ],
        "status": "completed",
        "priority": {
          "coding": [
            {
              "system": "http://snomed.info/sct",
              "code": "17621005",
              "display": "Normal"
            }
          ]
        },
        "type": [
          {
            "coding": [
              {
                "system": "http://snomed.info/sct",
                "code": "11429006",
                "display": "Consultation"
              }
            ]
          }
        ],
        "subject": {
          "reference": "Patient/6314a332-601f-4ca6-b6b6-59197d8b4138",
          "display": "None None"
        },
        "reason": [
          {
            "value": [
              {
                "concept": {
                  "text": "blurred vision, knee pain after walking, and occasional clumsiness"
                }
              }
            ]
          }
        ]
      },
      "request": {
        "method": "POST",
        "url": "Encounter"
      }
    },
    {
      "fullUrl": "urn:uuid:4183d185-787c-45c9-b607-259c8a442f91",
      "resource": {
        "resourceType": "Observation",
        "id": "4183d185-787c-45c9-b607-259c8a442f91",
        "status": "final",
        "category": [
          {
            "coding": [
              {
                "system": "http://terminology.hl7.org/CodeSystem/observation-category",
                "code": "laboratory",
                "display": "Laboratory"
              }
            ],
            "text": "Laboratory"
          }
        ],
        "code": {
          "coding": [
            {
              "system": "http://loinc.org",
              "code": "32615-7",
              "display": "Hycs-Cys diS SerPl-sCnc"
            }
          ],
          "text": "Plasma homocysteine"
        },
        "subject": {
          "reference": "Patient/6314a332-601f-4ca6-b6b6-59197d8b4138"
        },
        "encounter": {
          "reference": "Encounter/563c60e7-a638-49bc-adfb-4c1fe9cb4e5e"
        },
        "effectiveDateTime": "2025-10-16",
        "valueQuantity": {
          "value": 22.0,
          "unit": "µmol/L",
          "system": "http://unitsofmeasure.org",
          "code": "µmol/L"
        },
        "interpretation": [
          {
            "coding": [
              {
                "system": "http://terminology.hl7.org/CodeSystem/v3-ObservationInterpretation",
                "code": "H",
                "display": "High"
              }
            ]
          }
        ],
        "note": [
          {
            "text": "Definition: https://loinc.org/32615-7/"
          }
        ]
      },
      "request": {
        "method": "POST",
        "url": "Observation"
      }
    },
    {
      "fullUrl": "urn:uuid:642ecbef-74aa-482d-bd6b-3863a3cf3c50",
      "resource": {
        "resourceType": "Observation",
        "id": "642ecbef-74aa-482d-bd6b-3863a3cf3c50",
        "status": "final",
        "category": [
          {
            "coding": [
              {
                "system": "http://terminology.hl7.org/CodeSystem/observation-category",
                "code": "laboratory",
                "display": "Laboratory"
              }
            ],
            "text": "Laboratory"
          }
        ],
        "code": {
          "coding": [
            {
              "system": "http://loinc.org",
              "code": "unknown",
              "display": "Urinary homocysteine"
            }
          ],
          "text": "Urinary homocysteine"
        },
        "subject": {
          "reference": "Patient/6314a332-601f-4ca6-b6b6-59197d8b4138"
        },
        "encounter": {
          "reference": "Encounter/563c60e7-a638-49bc-adfb-4c1fe9cb4e5e"
        },
        "effectiveDateTime": "2025-10-16",
        "interpretation": [
          {
            "coding": [
              {
                "system": "http://terminology.hl7.org/CodeSystem/v3-ObservationInterpretation",
                "code": "L",
                "display": "Low"
              }
            ]
          }
        ]
      },
      "request": {
        "method": "POST",
        "url": "Observation"
      }
    },
    {
      "fullUrl": "urn:uuid:4752d4f3-150f-47bc-bc5d-4ee779fe7e0f",
      "resource": {
        "resourceType": "Observation",
        "id": "4752d4f3-150f-47bc-bc5d-4ee779fe7e0f",
        "status": "final",
        "category": [
          {
            "coding": [
              {
                "system": "http://terminology.hl7.org/CodeSystem/observation-category",
                "code": "laboratory",
                "display": "Laboratory"
              }
            ],
            "text": "Laboratory"
          }
        ],
        "code": {
          "coding": [
            {
              "system": "http://loinc.org",
              "code": "74442-5",
              "display": "Pyridoxal Phos Bld-sCnc"
            }
          ],
          "text": "Vitamin B6"
        },
        "subject": {
          "reference": "Patient/6314a332-601f-4ca6-b6b6-59197d8b4138"
        },
        "encounter": {
          "reference": "Encounter/563c60e7-a638-49bc-adfb-4c1fe9cb4e5e"
        },
        "effectiveDateTime": "2025-10-16",
        "interpretation": [
          {
            "coding": [
              {
                "system": "http://terminology.hl7.org/CodeSystem/v3-ObservationInterpretation",
                "code": "N",
                "display": "Normal"
              }
            ]
          }
        ],
        "note": [
          {
            "text": "Definition: https://loinc.org/74442-5/"
          }
        ]
      },
      "request": {
        "method": "POST",
        "url": "Observation"
      }
    },
    {
      "fullUrl": "urn:uuid:2b31324f-2df3-411e-9f33-3c1719280322",
      "resource": {
        "resourceType": "Observation",
        "id": "2b31324f-2df3-411e-9f33-3c1719280322",
        "status": "final",
        "category": [
          {
            "coding": [
              {
                "system": "http://terminology.hl7.org/CodeSystem/observation-category",
                "code": "laboratory",
                "display": "Laboratory"
              }
            ],
            "text": "Laboratory"
          }
        ],
        "code": {
          "coding": [
            {
              "system": "http://loinc.org",
              "code": "55885-8",
              "display": "Vit B12b Ur-mCnc"
            }
          ],
          "text": "Vitamin B12"
        },
        "subject": {
          "reference": "Patient/6314a332-601f-4ca6-b6b6-59197d8b4138"
        },
        "encounter": {
          "reference": "Encounter/563c60e7-a638-49bc-adfb-4c1fe9cb4e5e"
        },
        "effectiveDateTime": "2025-10-16",
        "interpretation": [
          {
            "coding": [
              {
                "system": "http://terminology.hl7.org/CodeSystem/v3-ObservationInterpretation",
                "code": "N",
                "display": "Normal"
              }
            ]
          }
        ],
        "note": [
          {
            "text": "Definition: https://loinc.org/55885-8/"
          }
        ]
      },
      "request": {
        "method": "POST",
        "url": "Observation"
      }
    },
    {
      "fullUrl": "urn:uuid:ec0c8ec4-1310-49a1-9803-387ac4d813e6",
      "resource": {
        "resourceType": "Observation",
        "id": "ec0c8ec4-1310-49a1-9803-387ac4d813e6",
        "status": "final",
        "category": [
          {
            "coding": [
              {
                "system": "http://terminology.hl7.org/CodeSystem/observation-category",
                "code": "laboratory",
                "display": "Laboratory"
              }
            ],
            "text": "Laboratory"
          }
        ],
        "code": {
          "coding": [
            {
              "system": "http://loinc.org",
              "code": "2282-2",
              "display": "Folate Bld-mCnc"
            }
          ],
          "text": "Folate"
        },
        "subject": {
          "reference": "Patient/6314a332-601f-4ca6-b6b6-59197d8b4138"
        },
        "encounter": {
          "reference": "Encounter/563c60e7-a638-49bc-adfb-4c1fe9cb4e5e"
        },
        "effectiveDateTime": "2025-10-16",
        "interpretation": [
          {
            "coding": [
              {
                "system": "http://terminology.hl7.org/CodeSystem/v3-ObservationInterpretation",
                "code": "N",
                "display": "Normal"
              }
            ]
          }
        ],
        "note": [
          {
            "text": "Definition: https://loinc.org/2282-2/"
          }
        ]
      },
      "request": {
        "method": "POST",
        "url": "Observation"
      }
    },
    {
      "fullUrl": "urn:uuid:569e0433-a5db-4704-8c9a-12d774ce4e2c",
      "resource": {
        "resourceType": "Observation",
        "id": "569e0433-a5db-4704-8c9a-12d774ce4e2c",
        "status": "final",
        "category": [
          {
            "coding": [
              {
                "system": "http://terminology.hl7.org/CodeSystem/observation-category",
                "code": "exam",
                "display": "Exam"
              }
            ],
            "text": "Exam"
          }
        ],
        "code": {
          "coding": [
            {
              "system": "http://snomed.info/sct",
              "code": "72436007",
              "display": "Blurred disc margin"
            }
          ],
          "text": "Blurred vision"
        },
        "subject": {
          "reference": "Patient/6314a332-601f-4ca6-b6b6-59197d8b4138"
        },
        "encounter": {
          "reference": "Encounter/563c60e7-a638-49bc-adfb-4c1fe9cb4e5e"
        },
        "effectivePeriod": {
          "start": "2025-10-16"
        },
        "valueBoolean": true,
        "note": [
          {
            "text": "Definition: https://snomed.info/id/72436007"
          }
        ]
      },
      "request": {
        "method": "POST",
        "url": "Observation"
      }
    },
    {
      "fullUrl": "urn:uuid:97e97dd4-cdfe-4986-8d56-4c2667a8eaa9",
      "resource": {
        "resourceType": "Observation",
        "id": "97e97dd4-cdfe-4986-8d56-4c2667a8eaa9",
        "status": "final",
        "category": [
          {
            "coding": [
              {
                "system": "http://terminology.hl7.org/CodeSystem/observation-category",
                "code": "exam",
                "display": "Exam"
              }
            ],
            "text": "Exam"
          }
        ],
        "code": {
          "coding": [
            {
              "system": "http://snomed.info/sct",
              "code": "428911004",
              "display": "Pain relief by walking"
            }
          ],
          "text": "Knee pain after walking"
        },
        "subject": {
          "reference": "Patient/6314a332-601f-4ca6-b6b6-59197d8b4138"
        },
        "encounter": {
          "reference": "Encounter/563c60e7-a638-49bc-adfb-4c1fe9cb4e5e"
        },
        "effectivePeriod": {
          "start": "2025-10-16"
        },
        "valueBoolean": true,
        "note": [
          {
            "text": "Definition: https://snomed.info/id/428911004"
          }
        ]
      },
      "request": {
        "method": "POST",
        "url": "Observation"
      }
    },
    {
      "fullUrl": "urn:uuid:9145f699-8971-4ef5-be77-f203e6d6f1ef",
      "resource": {
        "resourceType": "Observation",
        "id": "9145f699-8971-4ef5-be77-f203e6d6f1ef",
        "status": "final",
        "category": [
          {
            "coding": [
              {
                "system": "http://terminology.hl7.org/CodeSystem/observation-category",
                "code": "exam",
                "display": "Exam"
              }
            ],
            "text": "Exam"
          }
        ],
        "code": {
          "coding": [
            {
              "system": "http://snomed.info/sct",
              "code": "7006003",
              "display": "Clumsiness"
            }
          ],
          "text": "Clumsiness"
        },
        "subject": {
          "reference": "Patient/6314a332-601f-4ca6-b6b6-59197d8b4138"
        },
        "encounter": {
          "reference": "Encounter/563c60e7-a638-49bc-adfb-4c1fe9cb4e5e"
        },
        "effectivePeriod": {
          "start": "2025-10-16"
        },
        "valueBoolean": true,
        "note": [
          {
            "text": "Definition: https://snomed.info/id/7006003"
          }
        ]
      },
      "request": {
        "method": "POST",
        "url": "Observation"
      }
    },
    {
      "fullUrl": "urn:uuid:c592d203-b557-4117-903a-a1bdae29f112",
      "resource": {
        "resourceType": "Observation",
        "id": "c592d203-b557-4117-903a-a1bdae29f112",
        "status": "final",
        "category": [
          {
            "coding": [
              {
                "system": "http://terminology.hl7.org/CodeSystem/observation-category",
                "code": "exam",
                "display": "Exam"
              }
            ],
            "text": "Exam"
          }
        ],
        "code": {
          "coding": [
            {
              "system": "http://snomed.info/sct",
              "code": "126729006",
              "display": "Thrombotic microangiopathy"
            }
          ],
          "text": "Thrombotic events"
        },
        "subject": {
          "reference": "Patient/6314a332-601f-4ca6-b6b6-59197d8b4138"
        },
        "encounter": {
          "reference": "Encounter/563c60e7-a638-49bc-adfb-4c1fe9cb4e5e"
        },
        "effectivePeriod": {
          "start": "2025-10-16"
        },
        "valueBoolean": false,
        "note": [
          {
            "text": "Definition: https://snomed.info/id/126729006"
          }
        ]
      },
      "request": {
        "method": "POST",
        "url": "Observation"
      }
    },
    {
      "fullUrl": "urn:uuid:6d3382d4-20be-4b79-a34d-a2b9e9d8d1e2",
      "resource": {
        "resourceType": "Observation",
        "id": "6d3382d4-20be-4b79-a34d-a2b9e9d8d1e2",
        "status": "final",
        "category": [
          {
            "coding": [
              {
                "system": "http://terminology.hl7.org/CodeSystem/observation-category",
                "code": "exam",
                "display": "Exam"
              }
            ],
            "text": "Exam"
          }
        ],
        "code": {
          "coding": [
            {
              "system": "http://snomed.info/sct",
              "code": "425805004",
              "display": "Cognitive developmental delay"
            }
          ],
          "text": "Cognitive delay"
        },
        "subject": {
          "reference": "Patient/6314a332-601f-4ca6-b6b6-59197d8b4138"
        },
        "encounter": {
          "reference": "Encounter/563c60e7-a638-49bc-adfb-4c1fe9cb4e5e"
        },
        "effectivePeriod": {
          "start": "2025-10-16"
        },
        "valueBoolean": false,
        "note": [
          {
            "text": "Definition: https://snomed.info/id/425805004"
          }
        ]
      },
      "request": {
        "method": "POST",
        "url": "Observation"
      }
    },
    {
      "fullUrl": "urn:uuid:34c2a985-9a78-44e3-b937-3ffb3b57f52c",
      "resource": {
        "resourceType": "Observation",
        "id": "34c2a985-9a78-44e3-b937-3ffb3b57f52c",
        "status": "final",
        "category": [
          {
            "coding": [
              {
                "system": "http://terminology.hl7.org/CodeSystem/observation-category",
                "code": "vital-signs",
                "display": "Vital Signs"
              }
            ],
            "text": "Vital Signs"
          }
        ],
        "code": {
          "coding": [
            {
              "system": "http://loinc.org",
              "code": "92998-4",
              "display": "Lower segment"
            }
          ],
          "text": "Height"
        },
        "subject": {
          "reference": "Patient/6314a332-601f-4ca6-b6b6-59197d8b4138"
        },
        "encounter": {
          "reference": "Encounter/563c60e7-a638-49bc-adfb-4c1fe9cb4e5e"
        },
        "effectiveDateTime": "2025-10-16",
        "interpretation": [
          {
            "coding": [
              {
                "system": "http://terminology.hl7.org/CodeSystem/v3-ObservationInterpretation",
                "code": "H",
                "display": "High"
              }
            ],
            "text": "High"
          }
        ]
      },
      "request": {
        "method": "POST",
        "url": "Observation"
      }
    }
  ]
}