{
  "resourceType": "Bundle",
  "type": "transaction",
  "entry": [
    {
      "fullUrl": "urn:uuid:f4e06789-50d0-42d0-a873-ececebc14f66",
      "resource": {
        "resourceType": "Patient",
        "id": "f4e06789-50d0-42d0-a873-ececebc14f66",
        "name": [
          {
            "family": "Tarasov",
            "given": [
              "Ilya"
            ]
          }
        ],
        "gender": "male",
        "birthDate": "2018-01-01",
        "address": [
          {}
        ]
      },
      "request": {
        "method": "POST",
        "url": "Patient"
      }
    },
    {
      "fullUrl": "urn:uuid:abd6d587-b429-4105-8d10-6bc4a95d79f0",
      "resource": {
        "resourceType": "Encounter",
        "id": "abd6d587-b429-4105-8d10-6bc4a95d79f0",
        "identifier": [
          {
            "use": "temp",
            "value": "Encounter_Ilya Tarasov_20251023103637"
          }
        ],
        "status": "completed",
        "priority": {
          "coding": [
            {
              "system": "http://snomed.info/sct",
              "code": "17621005",
              "display": "Normal"
            }
          ]
        },
        "type": [
          {
            "coding": [
              {
                "system": "http://snomed.info/sct",
                "code": "11429006",
                "display": "Consultation"
              }
            ]
          }
        ],
        "subject": {
          "reference": "Patient/f4e06789-50d0-42d0-a873-ececebc14f66",
          "display": "Ilya Tarasov"
        },
        "reason": [
          {
            "value": [
              {
                "concept": {
                  "text": "obesity and developmental delay"
                }
              }
            ]
          }
        ]
      },
      "request": {
        "method": "POST",
        "url": "Encounter"
      }
    },
    {
      "fullUrl": "urn:uuid:9e06c7c9-66ed-46e8-9f29-52db0c8a868f",
      "resource": {
        "resourceType": "Observation",
        "id": "9e06c7c9-66ed-46e8-9f29-52db0c8a868f",
        "status": "final",
        "category": [
          {
            "coding": [
              {
                "system": "http://terminology.hl7.org/CodeSystem/observation-category",
                "code": "exam",
                "display": "Exam"
              }
            ],
            "text": "Exam"
          }
        ],
        "code": {
          "coding": [
            {
              "system": "http://snomed.info/sct",
              "code": "299698007",
              "display": "Feeding poor"
            }
          ],
          "text": "poor feeding"
        },
        "subject": {
          "reference": "Patient/f4e06789-50d0-42d0-a873-ececebc14f66"
        },
        "encounter": {
          "reference": "Encounter/abd6d587-b429-4105-8d10-6bc4a95d79f0"
        },
        "effectivePeriod": {
          "start": "2025-10-16"
        },
        "valueBoolean": false,
        "note": [
          {
            "text": "Definition: https://snomed.info/id/299698007"
          }
        ]
      },
      "request": {
        "method": "POST",
        "url": "Observation"
      }
    },
    {
      "fullUrl": "urn:uuid:f6ef5ada-7db7-4ccb-9f32-7887d51d0062",
      "resource": {
        "resourceType": "Observation",
        "id": "f6ef5ada-7db7-4ccb-9f32-7887d51d0062",
        "status": "final",
        "category": [
          {
            "coding": [
              {
                "system": "http://terminology.hl7.org/CodeSystem/observation-category",
                "code": "exam",
                "display": "Exam"
              }
            ],
            "text": "Exam"
          }
        ],
        "code": {
          "coding": [
            {
              "system": "http://snomed.info/sct",
              "code": "102608004",
              "display": "Excessive appetite"
            }
          ],
          "text": "excessive appetite"
        },
        "subject": {
          "reference": "Patient/f4e06789-50d0-42d0-a873-ececebc14f66"
        },
        "encounter": {
          "reference": "Encounter/abd6d587-b429-4105-8d10-6bc4a95d79f0"
        },
        "effectivePeriod": {
          "start": "2025-10-16"
        },
        "valueBoolean": true,
        "note": [
          {
            "text": "Definition: https://snomed.info/id/102608004"
          }
        ]
      },
      "request": {
        "method": "POST",
        "url": "Observation"
      }
    },
    {
      "fullUrl": "urn:uuid:79efdb3b-c402-4eb2-abb7-c019b488f995",
      "resource": {
        "resourceType": "Observation",
        "id": "79efdb3b-c402-4eb2-abb7-c019b488f995",
        "status": "final",
        "category": [
          {
            "coding": [
              {
                "system": "http://terminology.hl7.org/CodeSystem/observation-category",
                "code": "exam",
                "display": "Exam"
              }
            ],
            "text": "Exam"
          }
        ],
        "code": {
          "coding": [
            {
              "system": "http://snomed.info/sct",
              "code": "704200007",
              "display": "Acquired hypotonia"
            }
          ],
          "text": "mild hypotonia"
        },
        "subject": {
          "reference": "Patient/f4e06789-50d0-42d0-a873-ececebc14f66"
        },
        "encounter": {
          "reference": "Encounter/abd6d587-b429-4105-8d10-6bc4a95d79f0"
        },
        "effectivePeriod": {
          "start": "2025-10-16"
        },
        "valueBoolean": true,
        "note": [
          {
            "text": "Definition: https://snomed.info/id/704200007"
          }
        ]
      },
      "request": {
        "method": "POST",
        "url": "Observation"
      }
    },
    {
      "fullUrl": "urn:uuid:142ad04c-30db-4f8e-a6b5-bacf0d950a7e",
      "resource": {
        "resourceType": "Observation",
        "id": "142ad04c-30db-4f8e-a6b5-bacf0d950a7e",
        "status": "final",
        "category": [
          {
            "coding": [
              {
                "system": "http://terminology.hl7.org/CodeSystem/observation-category",
                "code": "exam",
                "display": "Exam"
              }
            ],
            "text": "Exam"
          }
        ],
        "code": {
          "coding": [
            {
              "system": "http://snomed.info/sct",
              "code": "161129001",
              "display": "Learning difficulties"
            }
          ],
          "text": "learning difficulties"
        },
        "subject": {
          "reference": "Patient/f4e06789-50d0-42d0-a873-ececebc14f66"
        },
        "encounter": {
          "reference": "Encounter/abd6d587-b429-4105-8d10-6bc4a95d79f0"
        },
        "effectivePeriod": {
          "start": "2025-10-16"
        },
        "valueBoolean": true,
        "note": [
          {
            "text": "Definition: https://snomed.info/id/161129001"
          }
        ]
      },
      "request": {
        "method": "POST",
        "url": "Observation"
      }
    },
    {
      "fullUrl": "urn:uuid:1f08e40e-3380-4284-abeb-9c2b0d40ab55",
      "resource": {
        "resourceType": "Observation",
        "id": "1f08e40e-3380-4284-abeb-9c2b0d40ab55",
        "status": "final",
        "category": [
          {
            "coding": [
              {
                "system": "http://terminology.hl7.org/CodeSystem/observation-category",
                "code": "vital-signs",
                "display": "Vital Signs"
              }
            ],
            "text": "Vital Signs"
          }
        ],
        "code": {
          "coding": [
            {
              "system": "http://loinc.org",
              "code": "92998-4",
              "display": "Lower segment"
            }
          ],
          "text": "height"
        },
        "subject": {
          "reference": "Patient/f4e06789-50d0-42d0-a873-ececebc14f66"
        },
        "encounter": {
          "reference": "Encounter/abd6d587-b429-4105-8d10-6bc4a95d79f0"
        },
        "effectiveDateTime": "2025-10-16",
        "valueQuantity": {
          "value": 118.0,
          "unit": "cm",
          "system": "http://unitsofmeasure.org",
          "code": "cm"
        }
      },
      "request": {
        "method": "POST",
        "url": "Observation"
      }
    },
    {
      "fullUrl": "urn:uuid:0d935f38-0c79-46a2-b625-32057c6d901c",
      "resource": {
        "resourceType": "Observation",
        "id": "0d935f38-0c79-46a2-b625-32057c6d901c",
        "status": "final",
        "category": [
          {
            "coding": [
              {
                "system": "http://terminology.hl7.org/CodeSystem/observation-category",
                "code": "vital-signs",
                "display": "Vital Signs"
              }
            ],
            "text": "Vital Signs"
          }
        ],
        "code": {
          "coding": [
            {
              "system": "http://loinc.org",
              "code": "8337-8",
              "display": "Bdy weight special circumstances"
            }
          ],
          "text": "weight"
        },
        "subject": {
          "reference": "Patient/f4e06789-50d0-42d0-a873-ececebc14f66"
        },
        "encounter": {
          "reference": "Encounter/abd6d587-b429-4105-8d10-6bc4a95d79f0"
        },
        "effectiveDateTime": "2025-10-16",
        "valueQuantity": {
          "value": 34.0,
          "unit": "kg",
          "system": "http://unitsofmeasure.org",
          "code": "kg"
        }
      },
      "request": {
        "method": "POST",
        "url": "Observation"
      }
    },
    {
      "fullUrl": "urn:uuid:3247c731-54bc-4bda-a37c-fc9c76a3e3e3",
      "resource": {
        "resourceType": "Observation",
        "id": "3247c731-54bc-4bda-a37c-fc9c76a3e3e3",
        "status": "final",
        "category": [
          {
            "coding": [
              {
                "system": "http://terminology.hl7.org/CodeSystem/observation-category",
                "code": "vital-signs",
                "display": "Vital Signs"
              }
            ],
            "text": "Vital Signs"
          }
        ],
        "code": {
          "coding": [
            {
              "system": "http://loinc.org",
              "code": "107102-6",
              "display": "BMI formula"
            }
          ],
          "text": "BMI"
        },
        "subject": {
          "reference": "Patient/f4e06789-50d0-42d0-a873-ececebc14f66"
        },
        "encounter": {
          "reference": "Encounter/abd6d587-b429-4105-8d10-6bc4a95d79f0"
        },
        "effectiveDateTime": "2025-10-16",
        "valueQuantity": {
          "value": 24.4,
          "unit": "kg/m²",
          "system": "http://unitsofmeasure.org",
          "code": "kg/m²"
        }
      },
      "request": {
        "method": "POST",
        "url": "Observation"
      }
    },
    {
      "fullUrl": "urn:uuid:1cfd6814-1bd5-48a7-8f08-88cba875bd15",
      "resource": {
        "resourceType": "List",
        "id": "1cfd6814-1bd5-48a7-8f08-88cba875bd15",
        "contained": [
          {
            "resourceType": "FamilyMemberHistory",
            "id": "fmh-2",
            "status": "completed",
            "patient": {
              "reference": "Patient/f4e06789-50d0-42d0-a873-ececebc14f66"
            },
            "relationship": {
              "coding": [
                {
                  "system": "http://snomed.info/sct",
                  "code": "66839005",
                  "display": "Father"
                }
              ]
            },
            "deceasedBoolean": false,
            "condition": []
          }
        ],
        "status": "current",
        "mode": "snapshot",
        "code": {
          "coding": [
            {
              "system": "http://loinc.org",
              "code": "8670-2",
              "display": "History of family member diseases"
            }
          ]
        },
        "subject": [
          {
            "reference": "Patient/f4e06789-50d0-42d0-a873-ececebc14f66"
          }
        ],
        "note": [
          {
            "text": "Both parents are healthy and non-consanguineous."
          }
        ],
        "entry": [
          {
            "item": {
              "reference": "#fmh-2"
            }
          }
        ]
      },
      "request": {
        "method": "POST",
        "url": "FamilyMemberHistory"
      }
    }
  ]
}