{
  "resourceType": "Bundle",
  "type": "transaction",
  "entry": [
    {
      "fullUrl": "urn:uuid:3e879e02-d366-48c4-a10e-83902f9fc155",
      "resource": {
        "resourceType": "Patient",
        "id": "3e879e02-d366-48c4-a10e-83902f9fc155",
        "name": [
          {
            "family": "R.",
            "given": [
              "Julia"
            ]
          }
        ],
        "gender": "female",
        "address": [
          {}
        ]
      },
      "request": {
        "method": "POST",
        "url": "Patient"
      }
    },
    {
      "fullUrl": "urn:uuid:a3110c80-9099-4c1e-9b89-1d86053cd1ee",
      "resource": {
        "resourceType": "Encounter",
        "id": "a3110c80-9099-4c1e-9b89-1d86053cd1ee",
        "identifier": [
          {
            "use": "temp",
            "value": "Encounter_Julia R._20251017122110"
          }
        ],
        "status": "completed",
        "priority": {
          "coding": [
            {
              "system": "http://snomed.info/sct",
              "code": "17621005",
              "display": "Normal"
            }
          ]
        },
        "type": [
          {
            "coding": [
              {
                "system": "http://snomed.info/sct",
                "code": "11429006",
                "display": "Consultation"
              }
            ]
          }
        ],
        "subject": {
          "reference": "Patient/3e879e02-d366-48c4-a10e-83902f9fc155",
          "display": "Julia R."
        },
        "reason": [
          {
            "value": [
              {
                "concept": {
                  "text": "gradual changes in facial appearance over 18 months"
                }
              }
            ]
          }
        ]
      },
      "request": {
        "method": "POST",
        "url": "Encounter"
      }
    },
    {
      "fullUrl": "urn:uuid:5cc88038-05ca-47cf-8c6e-242284eb19be",
      "resource": {
        "resourceType": "Observation",
        "id": "5cc88038-05ca-47cf-8c6e-242284eb19be",
        "status": "final",
        "category": [
          {
            "coding": [
              {
                "system": "http://terminology.hl7.org/CodeSystem/observation-category",
                "code": "laboratory",
                "display": "Laboratory"
              }
            ],
            "text": "Laboratory"
          }
        ],
        "code": {
          "coding": [
            {
              "system": "http://loinc.org",
              "code": "42788-0",
              "display": "IGF-IR Ag Tiss Ql ImStn"
            }
          ],
          "text": "IGF-1"
        },
        "subject": {
          "reference": "Patient/3e879e02-d366-48c4-a10e-83902f9fc155"
        },
        "encounter": {
          "reference": "Encounter/a3110c80-9099-4c1e-9b89-1d86053cd1ee"
        },
        "effectiveDateTime": "2025-10-17T10:21:10.914453Z",
        "valueQuantity": {
          "value": 2.1,
          "unit": "× ULN",
          "system": "http://unitsofmeasure.org",
          "code": "× ULN"
        },
        "interpretation": [
          {
            "coding": [
              {
                "system": "http://terminology.hl7.org/CodeSystem/v3-ObservationInterpretation",
                "code": "H",
                "display": "High"
              }
            ]
          }
        ],
        "note": [
          {
            "text": "Definition: https://loinc.org/42788-0/"
          }
        ]
      },
      "request": {
        "method": "POST",
        "url": "Observation"
      }
    },
    {
      "fullUrl": "urn:uuid:c5dd4989-d27f-4507-a6e9-0c06be6ea639",
      "resource": {
        "resourceType": "Observation",
        "id": "c5dd4989-d27f-4507-a6e9-0c06be6ea639",
        "status": "final",
        "category": [
          {
            "coding": [
              {
                "system": "http://terminology.hl7.org/CodeSystem/observation-category",
                "code": "laboratory",
                "display": "Laboratory"
              }
            ],
            "text": "Laboratory"
          }
        ],
        "code": {
          "coding": [
            {
              "system": "http://loinc.org",
              "code": "71977-3",
              "display": "VR 36 GH, raw score, oblique method"
            }
          ],
          "text": "GH"
        },
        "subject": {
          "reference": "Patient/3e879e02-d366-48c4-a10e-83902f9fc155"
        },
        "encounter": {
          "reference": "Encounter/a3110c80-9099-4c1e-9b89-1d86053cd1ee"
        },
        "effectiveDateTime": "2025-10-17T10:21:11.118057Z",
        "interpretation": [
          {
            "coding": [
              {
                "system": "http://terminology.hl7.org/CodeSystem/v3-ObservationInterpretation",
                "code": "A",
                "display": "Abnormal"
              }
            ]
          }
        ],
        "note": [
          {
            "text": "Definition: https://loinc.org/71977-3/"
          }
        ]
      },
      "request": {
        "method": "POST",
        "url": "Observation"
      }
    },
    {
      "fullUrl": "urn:uuid:8260970d-d149-4a76-aeac-161cf8af6721",
      "resource": {
        "resourceType": "Observation",
        "id": "8260970d-d149-4a76-aeac-161cf8af6721",
        "status": "final",
        "category": [
          {
            "coding": [
              {
                "system": "http://terminology.hl7.org/CodeSystem/observation-category",
                "code": "laboratory",
                "display": "Laboratory"
              }
            ],
            "text": "Laboratory"
          }
        ],
        "code": {
          "coding": [
            {
              "system": "http://loinc.org",
              "code": "62856-0",
              "display": "PhenX - oral glucose tolerance test protocol 141001"
            }
          ],
          "text": "Oral glucose tolerance test"
        },
        "subject": {
          "reference": "Patient/3e879e02-d366-48c4-a10e-83902f9fc155"
        },
        "encounter": {
          "reference": "Encounter/a3110c80-9099-4c1e-9b89-1d86053cd1ee"
        },
        "effectiveDateTime": "2025-10-17T10:21:11.322957Z",
        "note": [
          {
            "text": "Definition: https://loinc.org/62856-0/"
          }
        ]
      },
      "request": {
        "method": "POST",
        "url": "Observation"
      }
    },
    {
      "fullUrl": "urn:uuid:25d3cd4e-1afd-46d7-81c6-3ade1c6a6f3c",
      "resource": {
        "resourceType": "Observation",
        "id": "25d3cd4e-1afd-46d7-81c6-3ade1c6a6f3c",
        "status": "final",
        "category": [
          {
            "coding": [
              {
                "system": "http://terminology.hl7.org/CodeSystem/observation-category",
                "code": "exam",
                "display": "Exam"
              }
            ],
            "text": "Exam"
          }
        ],
        "code": {
          "coding": [
            {
              "system": "http://snomed.info/sct",
              "code": "10678951000119103",
              "display": "Bilateral localized swelling of hands"
            }
          ],
          "text": "Mild swelling of hands"
        },
        "subject": {
          "reference": "Patient/3e879e02-d366-48c4-a10e-83902f9fc155"
        },
        "encounter": {
          "reference": "Encounter/a3110c80-9099-4c1e-9b89-1d86053cd1ee"
        },
        "effectivePeriod": {
          "start": "2025-10-17T10:21:13.170726Z"
        },
        "valueBoolean": true,
        "note": [
          {
            "text": "Definition: https://snomed.info/id/10678951000119103"
          }
        ]
      },
      "request": {
        "method": "POST",
        "url": "Observation"
      }
    },
    {
      "fullUrl": "urn:uuid:cc94e878-cfe7-4a17-9314-1329e5b8cde2",
      "resource": {
        "resourceType": "Observation",
        "id": "cc94e878-cfe7-4a17-9314-1329e5b8cde2",
        "status": "final",
        "category": [
          {
            "coding": [
              {
                "system": "http://terminology.hl7.org/CodeSystem/observation-category",
                "code": "exam",
                "display": "Exam"
              }
            ],
            "text": "Exam"
          }
        ],
        "code": {
          "coding": [
            {
              "system": "http://snomed.info/sct",
              "code": "7087005",
              "display": "Intermittent"
            }
          ],
          "text": "Intermittent headaches"
        },
        "subject": {
          "reference": "Patient/3e879e02-d366-48c4-a10e-83902f9fc155"
        },
        "encounter": {
          "reference": "Encounter/a3110c80-9099-4c1e-9b89-1d86053cd1ee"
        },
        "effectivePeriod": {
          "start": "2025-10-17T10:21:14.808943Z"
        },
        "valueBoolean": true,
        "note": [
          {
            "text": "Definition: https://snomed.info/id/7087005"
          }
        ]
      },
      "request": {
        "method": "POST",
        "url": "Observation"
      }
    },
    {
      "fullUrl": "urn:uuid:bc564ad1-2da8-4a9d-82b1-834af7da751c",
      "resource": {
        "resourceType": "Observation",
        "id": "bc564ad1-2da8-4a9d-82b1-834af7da751c",
        "status": "final",
        "category": [
          {
            "coding": [
              {
                "system": "http://terminology.hl7.org/CodeSystem/observation-category",
                "code": "exam",
                "display": "Exam"
              }
            ],
            "text": "Exam"
          }
        ],
        "code": {
          "coding": [
            {
              "system": "http://snomed.info/sct",
              "code": "248185005",
              "display": "Coarse features"
            }
          ],
          "text": "Coarse facial features"
        },
        "subject": {
          "reference": "Patient/3e879e02-d366-48c4-a10e-83902f9fc155"
        },
        "encounter": {
          "reference": "Encounter/a3110c80-9099-4c1e-9b89-1d86053cd1ee"
        },
        "effectivePeriod": {
          "start": "2025-10-17T10:21:16.294532Z"
        },
        "valueBoolean": true,
        "note": [
          {
            "text": "Definition: https://snomed.info/id/248185005"
          }
        ]
      },
      "request": {
        "method": "POST",
        "url": "Observation"
      }
    },
    {
      "fullUrl": "urn:uuid:2aa2f211-5a36-4f11-bf35-34344db7e2ba",
      "resource": {
        "resourceType": "Observation",
        "id": "2aa2f211-5a36-4f11-bf35-34344db7e2ba",
        "status": "final",
        "category": [
          {
            "coding": [
              {
                "system": "http://terminology.hl7.org/CodeSystem/observation-category",
                "code": "exam",
                "display": "Exam"
              }
            ],
            "text": "Exam"
          }
        ],
        "code": {
          "coding": [
            {
              "system": "http://snomed.info/sct",
              "code": "260240005",
              "display": "Interdental"
            }
          ],
          "text": "Increased interdental spacing"
        },
        "subject": {
          "reference": "Patient/3e879e02-d366-48c4-a10e-83902f9fc155"
        },
        "encounter": {
          "reference": "Encounter/a3110c80-9099-4c1e-9b89-1d86053cd1ee"
        },
        "effectivePeriod": {
          "start": "2025-10-17T10:21:17.983990Z"
        },
        "valueBoolean": true,
        "note": [
          {
            "text": "Definition: https://snomed.info/id/260240005"
          }
        ]
      },
      "request": {
        "method": "POST",
        "url": "Observation"
      }
    },
    {
      "fullUrl": "urn:uuid:d1961831-fe5b-4391-a354-7c0629261ddf",
      "resource": {
        "resourceType": "Observation",
        "id": "d1961831-fe5b-4391-a354-7c0629261ddf",
        "status": "final",
        "category": [
          {
            "coding": [
              {
                "system": "http://terminology.hl7.org/CodeSystem/observation-category",
                "code": "vital-signs",
                "display": "Vital Signs"
              }
            ],
            "text": "Vital Signs"
          }
        ],
        "code": {
          "coding": [
            {
              "system": "http://loinc.org",
              "code": "107102-6",
              "display": "BMI formula"
            }
          ],
          "text": "BMI"
        },
        "subject": {
          "reference": "Patient/3e879e02-d366-48c4-a10e-83902f9fc155"
        },
        "encounter": {
          "reference": "Encounter/a3110c80-9099-4c1e-9b89-1d86053cd1ee"
        },
        "effectiveDateTime": "2025-10-17T10:21:18.184875Z",
        "valueQuantity": {
          "value": 26.4,
          "unit": "kg/m²",
          "system": "http://unitsofmeasure.org",
          "code": "kg/m²"
        },
        "interpretation": [
          {
            "coding": [
              {
                "system": "http://terminology.hl7.org/CodeSystem/v3-ObservationInterpretation",
                "code": "A",
                "display": "Abnormal"
              }
            ],
            "text": "Abnormal"
          }
        ]
      },
      "request": {
        "method": "POST",
        "url": "Observation"
      }
    },
    {
      "fullUrl": "urn:uuid:d2536c0d-82f1-49b3-b5a0-3a434394894c",
      "resource": {
        "resourceType": "Observation",
        "id": "d2536c0d-82f1-49b3-b5a0-3a434394894c",
        "status": "final",
        "category": [
          {
            "coding": [
              {
                "system": "http://terminology.hl7.org/CodeSystem/observation-category",
                "code": "vital-signs",
                "display": "Vital Signs"
              }
            ],
            "text": "Vital Signs"
          }
        ],
        "code": {
          "coding": [
            {
              "system": "http://loinc.org",
              "code": "92671-7",
              "display": "Basement membrane zone BP180 & BP230 Ab.IgG panel"
            }
          ],
          "text": "BP"
        },
        "subject": {
          "reference": "Patient/3e879e02-d366-48c4-a10e-83902f9fc155"
        },
        "encounter": {
          "reference": "Encounter/a3110c80-9099-4c1e-9b89-1d86053cd1ee"
        },
        "effectiveDateTime": "2025-10-17T10:21:18.389561Z",
        "valueQuantity": {
          "value": 138.0,
          "unit": "mmHg",
          "system": "http://unitsofmeasure.org",
          "code": "mmHg"
        },
        "interpretation": [
          {
            "coding": [
              {
                "system": "http://terminology.hl7.org/CodeSystem/v3-ObservationInterpretation",
                "code": "H",
                "display": "High"
              }
            ],
            "text": "High"
          }
        ]
      },
      "request": {
        "method": "POST",
        "url": "Observation"
      }
    },
    {
      "fullUrl": "urn:uuid:2f6f4f23-d8fd-45cc-a932-11aed179de7f",
      "resource": {
        "resourceType": "List",
        "id": "2f6f4f23-d8fd-45cc-a932-11aed179de7f",
        "contained": [
          {
            "resourceType": "FamilyMemberHistory",
            "id": "fmh-1",
            "status": "completed",
            "patient": {
              "reference": "Patient/3e879e02-d366-48c4-a10e-83902f9fc155"
            },
            "relationship": {
              "coding": [
                {
                  "system": "http://snomed.info/sct",
                  "code": "72705000",
                  "display": "Mother"
                }
              ]
            },
            "deceasedBoolean": false,
            "condition": [
              {
                "code": {
                  "coding": [
                    {
                      "system": "http://snomed.info/sct",
                      "code": "38341003",
                      "display": "Hypertensive disorder"
                    }
                  ]
                }
              }
            ]
          }
        ],
        "status": "current",
        "mode": "snapshot",
        "code": {
          "coding": [
            {
              "system": "http://loinc.org",
              "code": "8670-2",
              "display": "History of family member diseases"
            }
          ]
        },
        "subject": [
          {
            "reference": "Patient/3e879e02-d366-48c4-a10e-83902f9fc155"
          }
        ],
        "entry": [
          {
            "item": {
              "reference": "#fmh-1"
            }
          }
        ]
      },
      "request": {
        "method": "POST",
        "url": "FamilyMemberHistory"
      }
    }
  ]
}