{
  "resourceType": "Bundle",
  "type": "transaction",
  "entry": [
    {
      "fullUrl": "urn:uuid:26459d0a-1d45-4632-a38b-c5be89169907",
      "resource": {
        "resourceType": "Patient",
        "id": "26459d0a-1d45-4632-a38b-c5be89169907",
        "name": [
          {
            "family": "Rodriguez",
            "given": [
              "Sofia"
            ]
          }
        ],
        "gender": "female",
        "birthDate": "1997-01-01",
        "address": [
          {}
        ]
      },
      "request": {
        "method": "POST",
        "url": "Patient"
      }
    },
    {
      "fullUrl": "urn:uuid:32ba2a2f-8c5a-404b-939b-25d6f100c2c1",
      "resource": {
        "resourceType": "Encounter",
        "id": "32ba2a2f-8c5a-404b-939b-25d6f100c2c1",
        "identifier": [
          {
            "use": "temp",
            "value": "Encounter_Sofia Rodriguez_20251021093710"
          }
        ],
        "status": "completed",
        "priority": {
          "coding": [
            {
              "system": "http://snomed.info/sct",
              "code": "17621005",
              "display": "Normal"
            }
          ]
        },
        "type": [
          {
            "coding": [
              {
                "system": "http://snomed.info/sct",
                "code": "11429006",
                "display": "Consultation"
              }
            ]
          }
        ],
        "subject": {
          "reference": "Patient/26459d0a-1d45-4632-a38b-c5be89169907",
          "display": "Sofia Rodriguez"
        },
        "reason": [
          {
            "value": [
              {
                "concept": {
                  "text": "intermittent fever, arthralgias, and morning stiffness"
                }
              }
            ]
          }
        ]
      },
      "request": {
        "method": "POST",
        "url": "Encounter"
      }
    },
    {
      "fullUrl": "urn:uuid:ad2f3c39-e3eb-49a1-97ba-ebd583fa715a",
      "resource": {
        "resourceType": "Observation",
        "id": "ad2f3c39-e3eb-49a1-97ba-ebd583fa715a",
        "status": "final",
        "category": [
          {
            "coding": [
              {
                "system": "http://terminology.hl7.org/CodeSystem/observation-category",
                "code": "laboratory",
                "display": "Laboratory"
              }
            ],
            "text": "Laboratory"
          }
        ],
        "code": {
          "coding": [
            {
              "system": "http://loinc.org",
              "code": "30341-2",
              "display": "Erythrocyte Sed Rat Bld"
            }
          ],
          "text": "Erythrocyte Sedimentation Rate"
        },
        "subject": {
          "reference": "Patient/26459d0a-1d45-4632-a38b-c5be89169907"
        },
        "encounter": {
          "reference": "Encounter/32ba2a2f-8c5a-404b-939b-25d6f100c2c1"
        },
        "effectiveDateTime": "2025-10-16",
        "valueQuantity": {
          "value": 30.0,
          "unit": "mm/hour",
          "system": "http://unitsofmeasure.org",
          "code": "mm/hour"
        },
        "interpretation": [
          {
            "coding": [
              {
                "system": "http://terminology.hl7.org/CodeSystem/v3-ObservationInterpretation",
                "code": "A",
                "display": "Abnormal"
              }
            ]
          }
        ],
        "note": [
          {
            "text": "Definition: https://loinc.org/30341-2/"
          }
        ]
      },
      "request": {
        "method": "POST",
        "url": "Observation"
      }
    },
    {
      "fullUrl": "urn:uuid:96295b1c-1082-4375-b1b0-c4ff278968c1",
      "resource": {
        "resourceType": "Observation",
        "id": "96295b1c-1082-4375-b1b0-c4ff278968c1",
        "status": "final",
        "category": [
          {
            "coding": [
              {
                "system": "http://terminology.hl7.org/CodeSystem/observation-category",
                "code": "laboratory",
                "display": "Laboratory"
              }
            ],
            "text": "Laboratory"
          }
        ],
        "code": {
          "coding": [
            {
              "system": "http://loinc.org",
              "code": "35648-5",
              "display": "CRP Quint SerPl Qn HS"
            }
          ],
          "text": "C-reactive protein"
        },
        "subject": {
          "reference": "Patient/26459d0a-1d45-4632-a38b-c5be89169907"
        },
        "encounter": {
          "reference": "Encounter/32ba2a2f-8c5a-404b-939b-25d6f100c2c1"
        },
        "effectiveDateTime": "2025-10-16",
        "valueQuantity": {
          "value": 15.0,
          "unit": "mg/L",
          "system": "http://unitsofmeasure.org",
          "code": "mg/L"
        },
        "interpretation": [
          {
            "coding": [
              {
                "system": "http://terminology.hl7.org/CodeSystem/v3-ObservationInterpretation",
                "code": "A",
                "display": "Abnormal"
              }
            ]
          }
        ],
        "note": [
          {
            "text": "Definition: https://loinc.org/35648-5/"
          }
        ]
      },
      "request": {
        "method": "POST",
        "url": "Observation"
      }
    },
    {
      "fullUrl": "urn:uuid:22f6c9e8-aa2a-4f23-8910-504c400a87dc",
      "resource": {
        "resourceType": "Observation",
        "id": "22f6c9e8-aa2a-4f23-8910-504c400a87dc",
        "status": "final",
        "category": [
          {
            "coding": [
              {
                "system": "http://terminology.hl7.org/CodeSystem/observation-category",
                "code": "laboratory",
                "display": "Laboratory"
              }
            ],
            "text": "Laboratory"
          }
        ],
        "code": {
          "coding": [
            {
              "system": "http://loinc.org",
              "code": "26464-8",
              "display": "WBC # Bld"
            }
          ],
          "text": "White Blood Cell Count"
        },
        "subject": {
          "reference": "Patient/26459d0a-1d45-4632-a38b-c5be89169907"
        },
        "encounter": {
          "reference": "Encounter/32ba2a2f-8c5a-404b-939b-25d6f100c2c1"
        },
        "effectiveDateTime": "2025-10-16",
        "valueQuantity": {
          "value": 12000.0,
          "unit": "cells/microliter",
          "system": "http://unitsofmeasure.org",
          "code": "cells/microliter"
        },
        "interpretation": [
          {
            "coding": [
              {
                "system": "http://terminology.hl7.org/CodeSystem/v3-ObservationInterpretation",
                "code": "A",
                "display": "Abnormal"
              }
            ]
          }
        ],
        "note": [
          {
            "text": "Definition: https://loinc.org/26464-8/"
          }
        ]
      },
      "request": {
        "method": "POST",
        "url": "Observation"
      }
    },
    {
      "fullUrl": "urn:uuid:1cc02fa4-5294-4147-ac31-975c72de5f7f",
      "resource": {
        "resourceType": "Observation",
        "id": "1cc02fa4-5294-4147-ac31-975c72de5f7f",
        "status": "final",
        "category": [
          {
            "coding": [
              {
                "system": "http://terminology.hl7.org/CodeSystem/observation-category",
                "code": "laboratory",
                "display": "Laboratory"
              }
            ],
            "text": "Laboratory"
          }
        ],
        "code": {
          "coding": [
            {
              "system": "http://loinc.org",
              "code": "62854-5",
              "display": "PhenX - glycosylated hemoglobin assay reflecting long-term glucose concentration protocol 140901"
            }
          ],
          "text": "Hemoglobin"
        },
        "subject": {
          "reference": "Patient/26459d0a-1d45-4632-a38b-c5be89169907"
        },
        "encounter": {
          "reference": "Encounter/32ba2a2f-8c5a-404b-939b-25d6f100c2c1"
        },
        "effectiveDateTime": "2025-10-16",
        "interpretation": [
          {
            "coding": [
              {
                "system": "http://terminology.hl7.org/CodeSystem/v3-ObservationInterpretation",
                "code": "N",
                "display": "Normal"
              }
            ]
          }
        ],
        "note": [
          {
            "text": "Definition: https://loinc.org/62854-5/"
          }
        ]
      },
      "request": {
        "method": "POST",
        "url": "Observation"
      }
    },
    {
      "fullUrl": "urn:uuid:aa7060d3-aae2-47cd-96a1-ab12d9fe9fe6",
      "resource": {
        "resourceType": "Observation",
        "id": "aa7060d3-aae2-47cd-96a1-ab12d9fe9fe6",
        "status": "final",
        "category": [
          {
            "coding": [
              {
                "system": "http://terminology.hl7.org/CodeSystem/observation-category",
                "code": "laboratory",
                "display": "Laboratory"
              }
            ],
            "text": "Laboratory"
          }
        ],
        "code": {
          "coding": [
            {
              "system": "http://loinc.org",
              "code": "74775-8",
              "display": "Platelet # PRP Auto"
            }
          ],
          "text": "Platelet Count"
        },
        "subject": {
          "reference": "Patient/26459d0a-1d45-4632-a38b-c5be89169907"
        },
        "encounter": {
          "reference": "Encounter/32ba2a2f-8c5a-404b-939b-25d6f100c2c1"
        },
        "effectiveDateTime": "2025-10-16",
        "interpretation": [
          {
            "coding": [
              {
                "system": "http://terminology.hl7.org/CodeSystem/v3-ObservationInterpretation",
                "code": "N",
                "display": "Normal"
              }
            ]
          }
        ],
        "note": [
          {
            "text": "Definition: https://loinc.org/74775-8/"
          }
        ]
      },
      "request": {
        "method": "POST",
        "url": "Observation"
      }
    },
    {
      "fullUrl": "urn:uuid:fe5846f0-9e4e-4ec7-b314-440571910743",
      "resource": {
        "resourceType": "Observation",
        "id": "fe5846f0-9e4e-4ec7-b314-440571910743",
        "status": "final",
        "category": [
          {
            "coding": [
              {
                "system": "http://terminology.hl7.org/CodeSystem/observation-category",
                "code": "exam",
                "display": "Exam"
              }
            ],
            "text": "Exam"
          }
        ],
        "code": {
          "coding": [
            {
              "system": "http://snomed.info/sct",
              "code": "386661006",
              "display": "Fever"
            }
          ],
          "text": "Fever"
        },
        "subject": {
          "reference": "Patient/26459d0a-1d45-4632-a38b-c5be89169907"
        },
        "encounter": {
          "reference": "Encounter/32ba2a2f-8c5a-404b-939b-25d6f100c2c1"
        },
        "effectivePeriod": {
          "start": "2025-10-16"
        },
        "valueBoolean": true,
        "interpretation": [
          {
            "coding": [
              {
                "system": "http://terminology.hl7.org/CodeSystem/v3-ObservationInterpretation",
                "code": "A",
                "display": "Abnormal"
              }
            ],
            "text": "Abnormal"
          }
        ],
        "note": [
          {
            "text": "Definition: https://snomed.info/id/386661006"
          }
        ]
      },
      "request": {
        "method": "POST",
        "url": "Observation"
      }
    },
    {
      "fullUrl": "urn:uuid:ec3e3eb0-7dc8-46e0-8fc5-92e5edce2f70",
      "resource": {
        "resourceType": "Observation",
        "id": "ec3e3eb0-7dc8-46e0-8fc5-92e5edce2f70",
        "status": "final",
        "category": [
          {
            "coding": [
              {
                "system": "http://terminology.hl7.org/CodeSystem/observation-category",
                "code": "exam",
                "display": "Exam"
              }
            ],
            "text": "Exam"
          }
        ],
        "code": {
          "coding": [
            {
              "system": "http://snomed.info/sct"
            }
          ],
          "text": "Arthralgias"
        },
        "subject": {
          "reference": "Patient/26459d0a-1d45-4632-a38b-c5be89169907"
        },
        "encounter": {
          "reference": "Encounter/32ba2a2f-8c5a-404b-939b-25d6f100c2c1"
        },
        "effectivePeriod": {
          "start": "2025-10-16"
        },
        "valueBoolean": true,
        "interpretation": [
          {
            "coding": [
              {
                "system": "http://terminology.hl7.org/CodeSystem/v3-ObservationInterpretation",
                "code": "A",
                "display": "Abnormal"
              }
            ],
            "text": "Abnormal"
          }
        ],
        "note": [
          {
            "text": "Definition: https://snomed.info/id/None"
          }
        ]
      },
      "request": {
        "method": "POST",
        "url": "Observation"
      }
    },
    {
      "fullUrl": "urn:uuid:7bdabdbc-f4e0-4476-9d2b-498b7557e1ad",
      "resource": {
        "resourceType": "Observation",
        "id": "7bdabdbc-f4e0-4476-9d2b-498b7557e1ad",
        "status": "final",
        "category": [
          {
            "coding": [
              {
                "system": "http://terminology.hl7.org/CodeSystem/observation-category",
                "code": "exam",
                "display": "Exam"
              }
            ],
            "text": "Exam"
          }
        ],
        "code": {
          "coding": [
            {
              "system": "http://snomed.info/sct",
              "code": "40144003",
              "display": "Morning stiffness - joint"
            }
          ],
          "text": "Morning Stiffness"
        },
        "subject": {
          "reference": "Patient/26459d0a-1d45-4632-a38b-c5be89169907"
        },
        "encounter": {
          "reference": "Encounter/32ba2a2f-8c5a-404b-939b-25d6f100c2c1"
        },
        "effectivePeriod": {
          "start": "2025-10-16"
        },
        "valueBoolean": true,
        "interpretation": [
          {
            "coding": [
              {
                "system": "http://terminology.hl7.org/CodeSystem/v3-ObservationInterpretation",
                "code": "A",
                "display": "Abnormal"
              }
            ],
            "text": "Abnormal"
          }
        ],
        "note": [
          {
            "text": "Definition: https://snomed.info/id/40144003"
          }
        ]
      },
      "request": {
        "method": "POST",
        "url": "Observation"
      }
    },
    {
      "fullUrl": "urn:uuid:b055fcc6-3555-4e0b-9b01-2792f44a0c58",
      "resource": {
        "resourceType": "Observation",
        "id": "b055fcc6-3555-4e0b-9b01-2792f44a0c58",
        "status": "final",
        "category": [
          {
            "coding": [
              {
                "system": "http://terminology.hl7.org/CodeSystem/observation-category",
                "code": "exam",
                "display": "Exam"
              }
            ],
            "text": "Exam"
          }
        ],
        "code": {
          "coding": [
            {
              "system": "http://snomed.info/sct",
              "code": "84229001",
              "display": "Fatigue"
            }
          ],
          "text": "Fatigue"
        },
        "subject": {
          "reference": "Patient/26459d0a-1d45-4632-a38b-c5be89169907"
        },
        "encounter": {
          "reference": "Encounter/32ba2a2f-8c5a-404b-939b-25d6f100c2c1"
        },
        "effectivePeriod": {
          "start": "2025-10-16"
        },
        "valueBoolean": true,
        "interpretation": [
          {
            "coding": [
              {
                "system": "http://terminology.hl7.org/CodeSystem/v3-ObservationInterpretation",
                "code": "A",
                "display": "Abnormal"
              }
            ],
            "text": "Abnormal"
          }
        ],
        "note": [
          {
            "text": "Definition: https://snomed.info/id/84229001"
          }
        ]
      },
      "request": {
        "method": "POST",
        "url": "Observation"
      }
    },
    {
      "fullUrl": "urn:uuid:8e3ac456-27e4-412f-8349-285106dbe9de",
      "resource": {
        "resourceType": "Observation",
        "id": "8e3ac456-27e4-412f-8349-285106dbe9de",
        "status": "final",
        "category": [
          {
            "coding": [
              {
                "system": "http://terminology.hl7.org/CodeSystem/observation-category",
                "code": "vital-signs",
                "display": "Vital Signs"
              }
            ],
            "text": "Vital Signs"
          }
        ],
        "code": {
          "coding": [
            {
              "system": "http://loinc.org",
              "code": "8310-5",
              "display": "Body temperature"
            }
          ],
          "text": "Body Temperature"
        },
        "subject": {
          "reference": "Patient/26459d0a-1d45-4632-a38b-c5be89169907"
        },
        "encounter": {
          "reference": "Encounter/32ba2a2f-8c5a-404b-939b-25d6f100c2c1"
        },
        "effectiveDateTime": "2025-10-16",
        "valueQuantity": {
          "value": 38.2,
          "unit": "degrees Celsius",
          "system": "http://unitsofmeasure.org",
          "code": "degrees Celsius"
        },
        "interpretation": [
          {
            "coding": [
              {
                "system": "http://terminology.hl7.org/CodeSystem/v3-ObservationInterpretation",
                "code": "A",
                "display": "Abnormal"
              }
            ],
            "text": "Abnormal"
          }
        ]
      },
      "request": {
        "method": "POST",
        "url": "Observation"
      }
    },
    {
      "fullUrl": "urn:uuid:95f84d57-1d1d-4731-b360-eca4c066f23f",
      "resource": {
        "resourceType": "Observation",
        "id": "95f84d57-1d1d-4731-b360-eca4c066f23f",
        "status": "final",
        "category": [
          {
            "coding": [
              {
                "system": "http://terminology.hl7.org/CodeSystem/observation-category",
                "code": "vital-signs",
                "display": "Vital Signs"
              }
            ],
            "text": "Vital Signs"
          }
        ],
        "code": {
          "coding": [
            {
              "system": "http://loinc.org",
              "code": "62733-1",
              "display": "PhenX - respiratory - pulse oximetry - rest protocol 091101"
            }
          ],
          "text": "Pulse"
        },
        "subject": {
          "reference": "Patient/26459d0a-1d45-4632-a38b-c5be89169907"
        },
        "encounter": {
          "reference": "Encounter/32ba2a2f-8c5a-404b-939b-25d6f100c2c1"
        },
        "effectiveDateTime": "2025-10-16",
        "valueQuantity": {
          "value": 90.0,
          "unit": "bpm",
          "system": "http://unitsofmeasure.org",
          "code": "bpm"
        },
        "interpretation": [
          {
            "coding": [
              {
                "system": "http://terminology.hl7.org/CodeSystem/v3-ObservationInterpretation",
                "code": "N",
                "display": "Normal"
              }
            ],
            "text": "Normal"
          }
        ]
      },
      "request": {
        "method": "POST",
        "url": "Observation"
      }
    },
    {
      "fullUrl": "urn:uuid:dcc0d5c0-754f-4de1-8540-6d8823c5208a",
      "resource": {
        "resourceType": "Observation",
        "id": "dcc0d5c0-754f-4de1-8540-6d8823c5208a",
        "status": "final",
        "category": [
          {
            "coding": [
              {
                "system": "http://terminology.hl7.org/CodeSystem/observation-category",
                "code": "vital-signs",
                "display": "Vital Signs"
              }
            ],
            "text": "Vital Signs"
          }
        ],
        "code": {
          "coding": [
            {
              "system": "http://loinc.org",
              "code": "18684-1",
              "display": "Blood pressure"
            }
          ],
          "text": "Blood Pressure"
        },
        "subject": {
          "reference": "Patient/26459d0a-1d45-4632-a38b-c5be89169907"
        },
        "encounter": {
          "reference": "Encounter/32ba2a2f-8c5a-404b-939b-25d6f100c2c1"
        },
        "effectiveDateTime": "2025-10-16",
        "interpretation": [
          {
            "coding": [
              {
                "system": "http://terminology.hl7.org/CodeSystem/v3-ObservationInterpretation",
                "code": "N",
                "display": "Normal"
              }
            ],
            "text": "Normal"
          }
        ]
      },
      "request": {
        "method": "POST",
        "url": "Observation"
      }
    },
    {
      "fullUrl": "urn:uuid:44a2443d-4894-4def-a953-2e243a180433",
      "resource": {
        "resourceType": "Observation",
        "id": "44a2443d-4894-4def-a953-2e243a180433",
        "status": "final",
        "category": [
          {
            "coding": [
              {
                "system": "http://terminology.hl7.org/CodeSystem/observation-category",
                "code": "vital-signs",
                "display": "Vital Signs"
              }
            ],
            "text": "Vital Signs"
          }
        ],
        "code": {
          "coding": [
            {
              "system": "http://loinc.org",
              "code": "2717-7",
              "display": "OxyHgb MFr Plas"
            }
          ],
          "text": "Oxygen Saturation"
        },
        "subject": {
          "reference": "Patient/26459d0a-1d45-4632-a38b-c5be89169907"
        },
        "encounter": {
          "reference": "Encounter/32ba2a2f-8c5a-404b-939b-25d6f100c2c1"
        },
        "effectiveDateTime": "2025-10-16",
        "valueQuantity": {
          "value": 98.0,
          "unit": "%",
          "system": "http://unitsofmeasure.org",
          "code": "%"
        },
        "interpretation": [
          {
            "coding": [
              {
                "system": "http://terminology.hl7.org/CodeSystem/v3-ObservationInterpretation",
                "code": "N",
                "display": "Normal"
              }
            ],
            "text": "Normal"
          }
        ]
      },
      "request": {
        "method": "POST",
        "url": "Observation"
      }
    },
    {
      "fullUrl": "urn:uuid:68537ab2-7189-4655-9b18-2e02e8a30782",
      "resource": {
        "resourceType": "MedicationStatement",
        "id": "68537ab2-7189-4655-9b18-2e02e8a30782",
        "status": "recorded",
        "medication": {
          "concept": {
            "coding": [
              {
                "system": "http://snomed.info/sct",
                "code": "387207008",
                "display": "Ibuprofen"
              }
            ],
            "text": "Ibuprofen"
          }
        },
        "subject": {
          "reference": "Patient/26459d0a-1d45-4632-a38b-c5be89169907"
        },
        "encounter": {
          "reference": "Encounter/32ba2a2f-8c5a-404b-939b-25d6f100c2c1"
        },
        "effectiveDateTime": "2025-10-16",
        "informationSource": [
          {
            "reference": "Patient/26459d0a-1d45-4632-a38b-c5be89169907"
          }
        ],
        "dosage": [
          {
            "text": "400 mg three times a day as needed",
            "timing": {
              "repeat": {
                "frequency": 3,
                "period": 1.0
              }
            }
          }
        ],
        "adherence": {
          "code": {
            "coding": [
              {
                "system": "http://hl7.org/fhir/CodeSystem/medication-statement-adherence",
                "code": "taking",
                "display": "Taking"
              }
            ]
          }
        }
      },
      "request": {
        "method": "POST",
        "url": "MedicationStatement"
      }
    },
    {
      "fullUrl": "urn:uuid:a5664428-9542-4167-bf7f-755a1a3d4b19",
      "resource": {
        "resourceType": "Encounter",
        "id": "a5664428-9542-4167-bf7f-755a1a3d4b19",
        "identifier": [
          {
            "use": "temp",
            "value": "Encounter_Sofia Rodriguez_20251021093724"
          }
        ],
        "status": "completed",
        "priority": {
          "coding": [
            {
              "system": "http://snomed.info/sct",
              "code": "17621005",
              "display": "Normal"
            }
          ]
        },
        "type": [
          {
            "coding": [
              {
                "system": "http://snomed.info/sct",
                "code": "11429006",
                "display": "Consultation"
              }
            ]
          }
        ],
        "subject": {
          "reference": "Patient/26459d0a-1d45-4632-a38b-c5be89169907",
          "display": "Sofia Rodriguez"
        },
        "reason": [
          {
            "value": [
              {
                "concept": {
                  "text": "fever and joint pains"
                }
              }
            ]
          }
        ]
      },
      "request": {
        "method": "POST",
        "url": "Encounter"
      }
    },
    {
      "fullUrl": "urn:uuid:5f92c482-7b0e-40a0-b6f4-d6a35896bd1c",
      "resource": {
        "resourceType": "Observation",
        "id": "5f92c482-7b0e-40a0-b6f4-d6a35896bd1c",
        "status": "final",
        "category": [
          {
            "coding": [
              {
                "system": "http://terminology.hl7.org/CodeSystem/observation-category",
                "code": "laboratory",
                "display": "Laboratory"
              }
            ],
            "text": "Laboratory"
          }
        ],
        "code": {
          "coding": [
            {
              "system": "http://loinc.org",
              "code": "35648-5",
              "display": "CRP Quint SerPl Qn HS"
            }
          ],
          "text": "C-reactive protein"
        },
        "subject": {
          "reference": "Patient/26459d0a-1d45-4632-a38b-c5be89169907"
        },
        "encounter": {
          "reference": "Encounter/a5664428-9542-4167-bf7f-755a1a3d4b19"
        },
        "effectiveDateTime": "2025-08-16",
        "interpretation": [
          {
            "coding": [
              {
                "system": "http://terminology.hl7.org/CodeSystem/v3-ObservationInterpretation",
                "code": "A",
                "display": "Abnormal"
              }
            ]
          }
        ],
        "note": [
          {
            "text": "Definition: https://loinc.org/35648-5/"
          }
        ]
      },
      "request": {
        "method": "POST",
        "url": "Observation"
      }
    },
    {
      "fullUrl": "urn:uuid:0fc6b141-018c-49a5-a3a1-a5cd2f001f73",
      "resource": {
        "resourceType": "Observation",
        "id": "0fc6b141-018c-49a5-a3a1-a5cd2f001f73",
        "status": "final",
        "category": [
          {
            "coding": [
              {
                "system": "http://terminology.hl7.org/CodeSystem/observation-category",
                "code": "exam",
                "display": "Exam"
              }
            ],
            "text": "Exam"
          }
        ],
        "code": {
          "coding": [
            {
              "system": "http://snomed.info/sct",
              "code": "386661006",
              "display": "Fever"
            }
          ],
          "text": "Fever"
        },
        "subject": {
          "reference": "Patient/26459d0a-1d45-4632-a38b-c5be89169907"
        },
        "encounter": {
          "reference": "Encounter/a5664428-9542-4167-bf7f-755a1a3d4b19"
        },
        "effectivePeriod": {
          "start": "2025-08-16"
        },
        "valueBoolean": true,
        "interpretation": [
          {
            "coding": [
              {
                "system": "http://terminology.hl7.org/CodeSystem/v3-ObservationInterpretation",
                "code": "A",
                "display": "Abnormal"
              }
            ],
            "text": "Abnormal"
          }
        ],
        "note": [
          {
            "text": "Definition: https://snomed.info/id/386661006"
          }
        ]
      },
      "request": {
        "method": "POST",
        "url": "Observation"
      }
    },
    {
      "fullUrl": "urn:uuid:8b7f9ff8-a05b-4afa-aaa0-e3bc8ef4c4b6",
      "resource": {
        "resourceType": "Observation",
        "id": "8b7f9ff8-a05b-4afa-aaa0-e3bc8ef4c4b6",
        "status": "final",
        "category": [
          {
            "coding": [
              {
                "system": "http://terminology.hl7.org/CodeSystem/observation-category",
                "code": "exam",
                "display": "Exam"
              }
            ],
            "text": "Exam"
          }
        ],
        "code": {
          "coding": [
            {
              "system": "http://snomed.info/sct"
            }
          ],
          "text": "Arthralgias"
        },
        "subject": {
          "reference": "Patient/26459d0a-1d45-4632-a38b-c5be89169907"
        },
        "encounter": {
          "reference": "Encounter/a5664428-9542-4167-bf7f-755a1a3d4b19"
        },
        "effectivePeriod": {
          "start": "2025-08-16"
        },
        "valueBoolean": true,
        "interpretation": [
          {
            "coding": [
              {
                "system": "http://terminology.hl7.org/CodeSystem/v3-ObservationInterpretation",
                "code": "A",
                "display": "Abnormal"
              }
            ],
            "text": "Abnormal"
          }
        ],
        "note": [
          {
            "text": "Definition: https://snomed.info/id/None"
          }
        ]
      },
      "request": {
        "method": "POST",
        "url": "Observation"
      }
    },
    {
      "fullUrl": "urn:uuid:838e9a9e-902f-4cb2-81c0-88dc978e5805",
      "resource": {
        "resourceType": "List",
        "id": "838e9a9e-902f-4cb2-81c0-88dc978e5805",
        "contained": [
          {
            "resourceType": "FamilyMemberHistory",
            "id": "fmh-2",
            "status": "completed",
            "patient": {
              "reference": "Patient/26459d0a-1d45-4632-a38b-c5be89169907"
            },
            "relationship": {
              "coding": [
                {
                  "system": "http://snomed.info/sct",
                  "code": "85411004",
                  "display": "Younger brother"
                }
              ]
            },
            "deceasedBoolean": false,
            "condition": [
              {
                "code": {
                  "coding": [
                    {
                      "system": "http://snomed.info/sct",
                      "code": "410502007",
                      "display": "Juvenile idiopathic arthritis"
                    }
                  ]
                }
              }
            ]
          }
        ],
        "status": "current",
        "mode": "snapshot",
        "code": {
          "coding": [
            {
              "system": "http://loinc.org",
              "code": "8670-2",
              "display": "History of family member diseases"
            }
          ]
        },
        "subject": [
          {
            "reference": "Patient/26459d0a-1d45-4632-a38b-c5be89169907"
          }
        ],
        "note": [
          {
            "text": "Both parents are alive and healthy otherwise."
          }
        ],
        "entry": [
          {
            "item": {
              "reference": "#fmh-2"
            }
          }
        ]
      },
      "request": {
        "method": "POST",
        "url": "FamilyMemberHistory"
      }
    }
  ]
}