{
  "resourceType": "Bundle",
  "type": "transaction",
  "entry": [
    {
      "fullUrl": "urn:uuid:d52a6efe-6f05-4b03-8c4b-f4d9a4ad8c8a",
      "resource": {
        "resourceType": "Patient",
        "id": "d52a6efe-6f05-4b03-8c4b-f4d9a4ad8c8a",
        "name": [
          {
            "family": "Patel",
            "given": [
              "Sophia"
            ]
          }
        ],
        "gender": "female",
        "birthDate": "1997-01-01",
        "address": [
          {}
        ]
      },
      "request": {
        "method": "POST",
        "url": "Patient"
      }
    },
    {
      "fullUrl": "urn:uuid:b5d374eb-507e-487a-9c82-1666df9899b7",
      "resource": {
        "resourceType": "Encounter",
        "id": "b5d374eb-507e-487a-9c82-1666df9899b7",
        "identifier": [
          {
            "use": "temp",
            "value": "Encounter_Sophia Patel_20251021093646"
          }
        ],
        "status": "completed",
        "priority": {
          "coding": [
            {
              "system": "http://snomed.info/sct",
              "code": "17621005",
              "display": "Normal"
            }
          ]
        },
        "type": [
          {
            "coding": [
              {
                "system": "http://snomed.info/sct",
                "code": "11429006",
                "display": "Consultation"
              }
            ]
          }
        ],
        "subject": {
          "reference": "Patient/d52a6efe-6f05-4b03-8c4b-f4d9a4ad8c8a",
          "display": "Sophia Patel"
        },
        "reason": [
          {
            "value": [
              {
                "concept": {
                  "text": "intermittent fever and joint pain"
                }
              }
            ]
          }
        ]
      },
      "request": {
        "method": "POST",
        "url": "Encounter"
      }
    },
    {
      "fullUrl": "urn:uuid:c0c0a645-ad3b-41ad-9cc2-372fbe0107ff",
      "resource": {
        "resourceType": "Observation",
        "id": "c0c0a645-ad3b-41ad-9cc2-372fbe0107ff",
        "status": "final",
        "category": [
          {
            "coding": [
              {
                "system": "http://terminology.hl7.org/CodeSystem/observation-category",
                "code": "laboratory",
                "display": "Laboratory"
              }
            ],
            "text": "Laboratory"
          }
        ],
        "code": {
          "coding": [
            {
              "system": "http://loinc.org",
              "code": "26464-8",
              "display": "WBC # Bld"
            }
          ],
          "text": "White Blood Cell Count"
        },
        "subject": {
          "reference": "Patient/d52a6efe-6f05-4b03-8c4b-f4d9a4ad8c8a"
        },
        "encounter": {
          "reference": "Encounter/b5d374eb-507e-487a-9c82-1666df9899b7"
        },
        "effectiveDateTime": "2025-10-16",
        "valueQuantity": {
          "value": 12500.0,
          "unit": "cells per microliter",
          "system": "http://unitsofmeasure.org",
          "code": "cells per microliter"
        },
        "interpretation": [
          {
            "coding": [
              {
                "system": "http://terminology.hl7.org/CodeSystem/v3-ObservationInterpretation",
                "code": "H",
                "display": "High"
              }
            ]
          }
        ],
        "note": [
          {
            "text": "Definition: https://loinc.org/26464-8/"
          }
        ]
      },
      "request": {
        "method": "POST",
        "url": "Observation"
      }
    },
    {
      "fullUrl": "urn:uuid:e041a9d7-5036-4228-be81-8e18ff12fc2f",
      "resource": {
        "resourceType": "Observation",
        "id": "e041a9d7-5036-4228-be81-8e18ff12fc2f",
        "status": "final",
        "category": [
          {
            "coding": [
              {
                "system": "http://terminology.hl7.org/CodeSystem/observation-category",
                "code": "laboratory",
                "display": "Laboratory"
              }
            ],
            "text": "Laboratory"
          }
        ],
        "code": {
          "coding": [
            {
              "system": "http://loinc.org",
              "code": "30341-2",
              "display": "Erythrocyte Sed Rat Bld"
            }
          ],
          "text": "Erythrocyte Sedimentation Rate"
        },
        "subject": {
          "reference": "Patient/d52a6efe-6f05-4b03-8c4b-f4d9a4ad8c8a"
        },
        "encounter": {
          "reference": "Encounter/b5d374eb-507e-487a-9c82-1666df9899b7"
        },
        "effectiveDateTime": "2025-10-16",
        "valueQuantity": {
          "value": 40.0,
          "unit": "mm per hour",
          "system": "http://unitsofmeasure.org",
          "code": "mm per hour"
        },
        "interpretation": [
          {
            "coding": [
              {
                "system": "http://terminology.hl7.org/CodeSystem/v3-ObservationInterpretation",
                "code": "H",
                "display": "High"
              }
            ]
          }
        ],
        "note": [
          {
            "text": "Definition: https://loinc.org/30341-2/"
          }
        ]
      },
      "request": {
        "method": "POST",
        "url": "Observation"
      }
    },
    {
      "fullUrl": "urn:uuid:4b0596fb-cce7-4543-8c92-63ac14fa290d",
      "resource": {
        "resourceType": "Observation",
        "id": "4b0596fb-cce7-4543-8c92-63ac14fa290d",
        "status": "final",
        "category": [
          {
            "coding": [
              {
                "system": "http://terminology.hl7.org/CodeSystem/observation-category",
                "code": "laboratory",
                "display": "Laboratory"
              }
            ],
            "text": "Laboratory"
          }
        ],
        "code": {
          "coding": [
            {
              "system": "http://loinc.org",
              "code": "35648-5",
              "display": "CRP Quint SerPl Qn HS"
            }
          ],
          "text": "C-reactive Protein"
        },
        "subject": {
          "reference": "Patient/d52a6efe-6f05-4b03-8c4b-f4d9a4ad8c8a"
        },
        "encounter": {
          "reference": "Encounter/b5d374eb-507e-487a-9c82-1666df9899b7"
        },
        "effectiveDateTime": "2025-10-16",
        "valueQuantity": {
          "value": 2.5,
          "unit": "mg per deciliter",
          "system": "http://unitsofmeasure.org",
          "code": "mg per deciliter"
        },
        "interpretation": [
          {
            "coding": [
              {
                "system": "http://terminology.hl7.org/CodeSystem/v3-ObservationInterpretation",
                "code": "H",
                "display": "High"
              }
            ]
          }
        ],
        "note": [
          {
            "text": "Definition: https://loinc.org/35648-5/"
          }
        ]
      },
      "request": {
        "method": "POST",
        "url": "Observation"
      }
    },
    {
      "fullUrl": "urn:uuid:e0800428-3530-49b5-82b7-170f7de614ad",
      "resource": {
        "resourceType": "Observation",
        "id": "e0800428-3530-49b5-82b7-170f7de614ad",
        "status": "final",
        "category": [
          {
            "coding": [
              {
                "system": "http://terminology.hl7.org/CodeSystem/observation-category",
                "code": "exam",
                "display": "Exam"
              }
            ],
            "text": "Exam"
          }
        ],
        "code": {
          "coding": [
            {
              "system": "http://snomed.info/sct",
              "code": "386661006",
              "display": "Fever"
            }
          ],
          "text": "Fever"
        },
        "subject": {
          "reference": "Patient/d52a6efe-6f05-4b03-8c4b-f4d9a4ad8c8a"
        },
        "encounter": {
          "reference": "Encounter/b5d374eb-507e-487a-9c82-1666df9899b7"
        },
        "effectivePeriod": {
          "start": "2025-10-16"
        },
        "valueBoolean": true,
        "interpretation": [
          {
            "coding": [
              {
                "system": "http://terminology.hl7.org/CodeSystem/v3-ObservationInterpretation",
                "code": "A",
                "display": "Abnormal"
              }
            ],
            "text": "Abnormal"
          }
        ],
        "note": [
          {
            "text": "Definition: https://snomed.info/id/386661006"
          }
        ]
      },
      "request": {
        "method": "POST",
        "url": "Observation"
      }
    },
    {
      "fullUrl": "urn:uuid:78dc5d09-ba4f-4435-b3ea-b0e98d09707a",
      "resource": {
        "resourceType": "Observation",
        "id": "78dc5d09-ba4f-4435-b3ea-b0e98d09707a",
        "status": "final",
        "category": [
          {
            "coding": [
              {
                "system": "http://terminology.hl7.org/CodeSystem/observation-category",
                "code": "exam",
                "display": "Exam"
              }
            ],
            "text": "Exam"
          }
        ],
        "code": {
          "coding": [
            {
              "system": "http://snomed.info/sct",
              "code": "89757007",
              "display": "Macular rash"
            }
          ],
          "text": "Rash"
        },
        "subject": {
          "reference": "Patient/d52a6efe-6f05-4b03-8c4b-f4d9a4ad8c8a"
        },
        "encounter": {
          "reference": "Encounter/b5d374eb-507e-487a-9c82-1666df9899b7"
        },
        "effectivePeriod": {
          "start": "2025-10-16"
        },
        "valueBoolean": true,
        "interpretation": [
          {
            "coding": [
              {
                "system": "http://terminology.hl7.org/CodeSystem/v3-ObservationInterpretation",
                "code": "A",
                "display": "Abnormal"
              }
            ],
            "text": "Abnormal"
          }
        ],
        "note": [
          {
            "text": "Definition: https://snomed.info/id/89757007"
          }
        ]
      },
      "request": {
        "method": "POST",
        "url": "Observation"
      }
    },
    {
      "fullUrl": "urn:uuid:39654220-fffa-4f3e-aeec-84ad16690ed3",
      "resource": {
        "resourceType": "Observation",
        "id": "39654220-fffa-4f3e-aeec-84ad16690ed3",
        "status": "final",
        "category": [
          {
            "coding": [
              {
                "system": "http://terminology.hl7.org/CodeSystem/observation-category",
                "code": "exam",
                "display": "Exam"
              }
            ],
            "text": "Exam"
          }
        ],
        "code": {
          "coding": [
            {
              "system": "http://snomed.info/sct",
              "code": "57676002",
              "display": "Joint pain"
            }
          ],
          "text": "Joint Pain"
        },
        "subject": {
          "reference": "Patient/d52a6efe-6f05-4b03-8c4b-f4d9a4ad8c8a"
        },
        "encounter": {
          "reference": "Encounter/b5d374eb-507e-487a-9c82-1666df9899b7"
        },
        "effectivePeriod": {
          "start": "2025-10-16"
        },
        "valueBoolean": true,
        "interpretation": [
          {
            "coding": [
              {
                "system": "http://terminology.hl7.org/CodeSystem/v3-ObservationInterpretation",
                "code": "A",
                "display": "Abnormal"
              }
            ],
            "text": "Abnormal"
          }
        ],
        "note": [
          {
            "text": "Definition: https://snomed.info/id/57676002"
          }
        ]
      },
      "request": {
        "method": "POST",
        "url": "Observation"
      }
    },
    {
      "fullUrl": "urn:uuid:b07e2270-9466-469b-b136-2d43634e1eb4",
      "resource": {
        "resourceType": "Observation",
        "id": "b07e2270-9466-469b-b136-2d43634e1eb4",
        "status": "final",
        "category": [
          {
            "coding": [
              {
                "system": "http://terminology.hl7.org/CodeSystem/observation-category",
                "code": "exam",
                "display": "Exam"
              }
            ],
            "text": "Exam"
          }
        ],
        "code": {
          "coding": [
            {
              "system": "http://snomed.info/sct",
              "code": "84229001",
              "display": "Fatigue"
            }
          ],
          "text": "Fatigue"
        },
        "subject": {
          "reference": "Patient/d52a6efe-6f05-4b03-8c4b-f4d9a4ad8c8a"
        },
        "encounter": {
          "reference": "Encounter/b5d374eb-507e-487a-9c82-1666df9899b7"
        },
        "effectivePeriod": {
          "start": "2025-10-16"
        },
        "valueBoolean": true,
        "interpretation": [
          {
            "coding": [
              {
                "system": "http://terminology.hl7.org/CodeSystem/v3-ObservationInterpretation",
                "code": "A",
                "display": "Abnormal"
              }
            ],
            "text": "Abnormal"
          }
        ],
        "note": [
          {
            "text": "Definition: https://snomed.info/id/84229001"
          }
        ]
      },
      "request": {
        "method": "POST",
        "url": "Observation"
      }
    },
    {
      "fullUrl": "urn:uuid:89e823ac-69f3-46fe-aff1-7fc0cd8ed0b0",
      "resource": {
        "resourceType": "Observation",
        "id": "89e823ac-69f3-46fe-aff1-7fc0cd8ed0b0",
        "status": "final",
        "category": [
          {
            "coding": [
              {
                "system": "http://terminology.hl7.org/CodeSystem/observation-category",
                "code": "vital-signs",
                "display": "Vital Signs"
              }
            ],
            "text": "Vital Signs"
          }
        ],
        "code": {
          "coding": [
            {
              "system": "http://loinc.org",
              "code": "18684-1",
              "display": "Blood pressure"
            }
          ],
          "text": "Blood Pressure"
        },
        "subject": {
          "reference": "Patient/d52a6efe-6f05-4b03-8c4b-f4d9a4ad8c8a"
        },
        "encounter": {
          "reference": "Encounter/b5d374eb-507e-487a-9c82-1666df9899b7"
        },
        "effectiveDateTime": "2025-10-16",
        "valueQuantity": {
          "value": 118.0,
          "unit": "mmHg",
          "system": "http://unitsofmeasure.org",
          "code": "mmHg"
        },
        "interpretation": [
          {
            "coding": [
              {
                "system": "http://terminology.hl7.org/CodeSystem/v3-ObservationInterpretation",
                "code": "N",
                "display": "Normal"
              }
            ],
            "text": "Normal"
          }
        ]
      },
      "request": {
        "method": "POST",
        "url": "Observation"
      }
    },
    {
      "fullUrl": "urn:uuid:24ee01d6-4d39-4121-b430-2fbc0217829b",
      "resource": {
        "resourceType": "Observation",
        "id": "24ee01d6-4d39-4121-b430-2fbc0217829b",
        "status": "final",
        "category": [
          {
            "coding": [
              {
                "system": "http://terminology.hl7.org/CodeSystem/observation-category",
                "code": "vital-signs",
                "display": "Vital Signs"
              }
            ],
            "text": "Vital Signs"
          }
        ],
        "code": {
          "coding": [
            {
              "system": "http://loinc.org",
              "code": "62733-1",
              "display": "PhenX - respiratory - pulse oximetry - rest protocol 091101"
            }
          ],
          "text": "Pulse"
        },
        "subject": {
          "reference": "Patient/d52a6efe-6f05-4b03-8c4b-f4d9a4ad8c8a"
        },
        "encounter": {
          "reference": "Encounter/b5d374eb-507e-487a-9c82-1666df9899b7"
        },
        "effectiveDateTime": "2025-10-16",
        "valueQuantity": {
          "value": 88.0,
          "unit": "bpm",
          "system": "http://unitsofmeasure.org",
          "code": "bpm"
        },
        "interpretation": [
          {
            "coding": [
              {
                "system": "http://terminology.hl7.org/CodeSystem/v3-ObservationInterpretation",
                "code": "N",
                "display": "Normal"
              }
            ],
            "text": "Normal"
          }
        ]
      },
      "request": {
        "method": "POST",
        "url": "Observation"
      }
    },
    {
      "fullUrl": "urn:uuid:0e6a8c75-e102-47c9-b513-f2ebb1e8ea09",
      "resource": {
        "resourceType": "Observation",
        "id": "0e6a8c75-e102-47c9-b513-f2ebb1e8ea09",
        "status": "final",
        "category": [
          {
            "coding": [
              {
                "system": "http://terminology.hl7.org/CodeSystem/observation-category",
                "code": "vital-signs",
                "display": "Vital Signs"
              }
            ],
            "text": "Vital Signs"
          }
        ],
        "code": {
          "coding": [
            {
              "system": "http://loinc.org",
              "code": "9279-1",
              "display": "Resp rate"
            }
          ],
          "text": "Respiratory Rate"
        },
        "subject": {
          "reference": "Patient/d52a6efe-6f05-4b03-8c4b-f4d9a4ad8c8a"
        },
        "encounter": {
          "reference": "Encounter/b5d374eb-507e-487a-9c82-1666df9899b7"
        },
        "effectiveDateTime": "2025-10-16",
        "valueQuantity": {
          "value": 16.0,
          "unit": "breaths per minute",
          "system": "http://unitsofmeasure.org",
          "code": "breaths per minute"
        },
        "interpretation": [
          {
            "coding": [
              {
                "system": "http://terminology.hl7.org/CodeSystem/v3-ObservationInterpretation",
                "code": "N",
                "display": "Normal"
              }
            ],
            "text": "Normal"
          }
        ]
      },
      "request": {
        "method": "POST",
        "url": "Observation"
      }
    },
    {
      "fullUrl": "urn:uuid:4b9e5c4b-c087-4683-a026-50162f50f3f3",
      "resource": {
        "resourceType": "Observation",
        "id": "4b9e5c4b-c087-4683-a026-50162f50f3f3",
        "status": "final",
        "category": [
          {
            "coding": [
              {
                "system": "http://terminology.hl7.org/CodeSystem/observation-category",
                "code": "vital-signs",
                "display": "Vital Signs"
              }
            ],
            "text": "Vital Signs"
          }
        ],
        "code": {
          "coding": [
            {
              "system": "http://loinc.org",
              "code": "2717-7",
              "display": "OxyHgb MFr Plas"
            }
          ],
          "text": "Oxygen Saturation"
        },
        "subject": {
          "reference": "Patient/d52a6efe-6f05-4b03-8c4b-f4d9a4ad8c8a"
        },
        "encounter": {
          "reference": "Encounter/b5d374eb-507e-487a-9c82-1666df9899b7"
        },
        "effectiveDateTime": "2025-10-16",
        "valueQuantity": {
          "value": 98.0,
          "unit": "%",
          "system": "http://unitsofmeasure.org",
          "code": "%"
        },
        "interpretation": [
          {
            "coding": [
              {
                "system": "http://terminology.hl7.org/CodeSystem/v3-ObservationInterpretation",
                "code": "N",
                "display": "Normal"
              }
            ],
            "text": "Normal"
          }
        ]
      },
      "request": {
        "method": "POST",
        "url": "Observation"
      }
    },
    {
      "fullUrl": "urn:uuid:ae99bd88-3f5b-4b65-94f1-e55d9cba5830",
      "resource": {
        "resourceType": "MedicationStatement",
        "id": "ae99bd88-3f5b-4b65-94f1-e55d9cba5830",
        "status": "recorded",
        "medication": {
          "concept": {
            "coding": [
              {
                "system": "http://snomed.info/sct",
                "code": "387207008",
                "display": "Ibuprofen"
              }
            ],
            "text": "Ibuprofen"
          }
        },
        "subject": {
          "reference": "Patient/d52a6efe-6f05-4b03-8c4b-f4d9a4ad8c8a"
        },
        "encounter": {
          "reference": "Encounter/b5d374eb-507e-487a-9c82-1666df9899b7"
        },
        "effectiveDateTime": "2025-10-16",
        "informationSource": [
          {
            "reference": "Patient/d52a6efe-6f05-4b03-8c4b-f4d9a4ad8c8a"
          }
        ],
        "dosage": [
          {
            "text": "400 mg as needed"
          }
        ],
        "adherence": {
          "code": {
            "coding": [
              {
                "system": "http://hl7.org/fhir/CodeSystem/medication-statement-adherence",
                "code": "taking",
                "display": "Taking"
              }
            ]
          }
        }
      },
      "request": {
        "method": "POST",
        "url": "MedicationStatement"
      }
    },
    {
      "fullUrl": "urn:uuid:742f1cd1-5adb-4542-b284-1f8dcaf1c809",
      "resource": {
        "resourceType": "List",
        "id": "742f1cd1-5adb-4542-b284-1f8dcaf1c809",
        "contained": [
          {
            "resourceType": "FamilyMemberHistory",
            "id": "fmh-2",
            "status": "completed",
            "patient": {
              "reference": "Patient/d52a6efe-6f05-4b03-8c4b-f4d9a4ad8c8a"
            },
            "relationship": {
              "coding": [
                {
                  "system": "http://snomed.info/sct",
                  "code": "70924004",
                  "display": "Brother"
                }
              ]
            },
            "deceasedBoolean": false,
            "condition": [
              {
                "code": {
                  "coding": [
                    {
                      "system": "http://snomed.info/sct",
                      "code": "410502007",
                      "display": "Juvenile idiopathic arthritis"
                    }
                  ]
                }
              }
            ]
          }
        ],
        "status": "current",
        "mode": "snapshot",
        "code": {
          "coding": [
            {
              "system": "http://loinc.org",
              "code": "8670-2",
              "display": "History of family member diseases"
            }
          ]
        },
        "subject": [
          {
            "reference": "Patient/d52a6efe-6f05-4b03-8c4b-f4d9a4ad8c8a"
          }
        ],
        "entry": [
          {
            "item": {
              "reference": "#fmh-2"
            }
          }
        ]
      },
      "request": {
        "method": "POST",
        "url": "FamilyMemberHistory"
      }
    }
  ]
}