{
  "resourceType": "Bundle",
  "type": "transaction",
  "entry": [
    {
      "fullUrl": "urn:uuid:23073b5f-1394-4fbd-8fb3-59cd8e53a0c4",
      "resource": {
        "resourceType": "Patient",
        "id": "23073b5f-1394-4fbd-8fb3-59cd8e53a0c4",
        "name": [
          {
            "family": "Thompson",
            "given": [
              "Ethan"
            ]
          }
        ],
        "gender": "male",
        "birthDate": "2020-01-01",
        "address": [
          {}
        ]
      },
      "request": {
        "method": "POST",
        "url": "Patient"
      }
    },
    {
      "fullUrl": "urn:uuid:efa0d19a-562c-407e-bd40-a9c2bdaadcc6",
      "resource": {
        "resourceType": "Encounter",
        "id": "efa0d19a-562c-407e-bd40-a9c2bdaadcc6",
        "identifier": [
          {
            "use": "temp",
            "value": "Encounter_Ethan Thompson_20251021094111"
          }
        ],
        "status": "completed",
        "priority": {
          "coding": [
            {
              "system": "http://snomed.info/sct",
              "code": "17621005",
              "display": "Normal"
            }
          ]
        },
        "type": [
          {
            "coding": [
              {
                "system": "http://snomed.info/sct",
                "code": "11429006",
                "display": "Consultation"
              }
            ]
          }
        ],
        "subject": {
          "reference": "Patient/23073b5f-1394-4fbd-8fb3-59cd8e53a0c4",
          "display": "Ethan Thompson"
        },
        "reason": [
          {
            "value": [
              {
                "concept": {
                  "text": "concerns about feeding habits and overall development"
                }
              }
            ]
          }
        ]
      },
      "request": {
        "method": "POST",
        "url": "Encounter"
      }
    },
    {
      "fullUrl": "urn:uuid:ef2c5f72-bc17-41e1-a53c-40ad4066fd8d",
      "resource": {
        "resourceType": "Observation",
        "id": "ef2c5f72-bc17-41e1-a53c-40ad4066fd8d",
        "status": "final",
        "category": [
          {
            "coding": [
              {
                "system": "http://terminology.hl7.org/CodeSystem/observation-category",
                "code": "laboratory",
                "display": "Laboratory"
              }
            ],
            "text": "Laboratory"
          }
        ],
        "code": {
          "coding": [
            {
              "system": "http://loinc.org",
              "code": "74790-7",
              "display": "Glucose challenge panel"
            }
          ],
          "text": "Glucose"
        },
        "subject": {
          "reference": "Patient/23073b5f-1394-4fbd-8fb3-59cd8e53a0c4"
        },
        "encounter": {
          "reference": "Encounter/efa0d19a-562c-407e-bd40-a9c2bdaadcc6"
        },
        "effectiveDateTime": "2025-10-16",
        "valueQuantity": {
          "value": 90.0,
          "unit": "mg/dL",
          "system": "http://unitsofmeasure.org",
          "code": "mg/dL"
        },
        "interpretation": [
          {
            "coding": [
              {
                "system": "http://terminology.hl7.org/CodeSystem/v3-ObservationInterpretation",
                "code": "N",
                "display": "Normal"
              }
            ]
          }
        ],
        "note": [
          {
            "text": "Definition: https://loinc.org/74790-7/"
          }
        ]
      },
      "request": {
        "method": "POST",
        "url": "Observation"
      }
    },
    {
      "fullUrl": "urn:uuid:5ce31bea-d59b-4dee-8352-b419c4bf6cb7",
      "resource": {
        "resourceType": "Observation",
        "id": "5ce31bea-d59b-4dee-8352-b419c4bf6cb7",
        "status": "final",
        "category": [
          {
            "coding": [
              {
                "system": "http://terminology.hl7.org/CodeSystem/observation-category",
                "code": "laboratory",
                "display": "Laboratory"
              }
            ],
            "text": "Laboratory"
          }
        ],
        "code": {
          "coding": [
            {
              "system": "http://loinc.org",
              "code": "111148-3",
              "display": "C peptide Msmt Ur"
            }
          ],
          "text": "Insulin"
        },
        "subject": {
          "reference": "Patient/23073b5f-1394-4fbd-8fb3-59cd8e53a0c4"
        },
        "encounter": {
          "reference": "Encounter/efa0d19a-562c-407e-bd40-a9c2bdaadcc6"
        },
        "effectiveDateTime": "2025-10-16",
        "valueQuantity": {
          "value": 10.0,
          "unit": "μU/mL",
          "system": "http://unitsofmeasure.org",
          "code": "μU/mL"
        },
        "interpretation": [
          {
            "coding": [
              {
                "system": "http://terminology.hl7.org/CodeSystem/v3-ObservationInterpretation",
                "code": "N",
                "display": "Normal"
              }
            ]
          }
        ],
        "note": [
          {
            "text": "Definition: https://loinc.org/111148-3/"
          }
        ]
      },
      "request": {
        "method": "POST",
        "url": "Observation"
      }
    },
    {
      "fullUrl": "urn:uuid:dc9b42ff-1b99-48bf-ba93-2afcc7480716",
      "resource": {
        "resourceType": "Observation",
        "id": "dc9b42ff-1b99-48bf-ba93-2afcc7480716",
        "status": "final",
        "category": [
          {
            "coding": [
              {
                "system": "http://terminology.hl7.org/CodeSystem/observation-category",
                "code": "exam",
                "display": "Exam"
              }
            ],
            "text": "Exam"
          }
        ],
        "code": {
          "coding": [
            {
              "system": "http://snomed.info/sct",
              "code": "72405004",
              "display": "Increased appetite"
            }
          ],
          "text": "Increased appetite"
        },
        "subject": {
          "reference": "Patient/23073b5f-1394-4fbd-8fb3-59cd8e53a0c4"
        },
        "encounter": {
          "reference": "Encounter/efa0d19a-562c-407e-bd40-a9c2bdaadcc6"
        },
        "effectivePeriod": {
          "start": "2025-10-16"
        },
        "valueBoolean": true,
        "note": [
          {
            "text": "Definition: https://snomed.info/id/72405004"
          }
        ]
      },
      "request": {
        "method": "POST",
        "url": "Observation"
      }
    },
    {
      "fullUrl": "urn:uuid:273a05c6-595e-4e0d-9f9c-f42ea0c15ee5",
      "resource": {
        "resourceType": "Observation",
        "id": "273a05c6-595e-4e0d-9f9c-f42ea0c15ee5",
        "status": "final",
        "category": [
          {
            "coding": [
              {
                "system": "http://terminology.hl7.org/CodeSystem/observation-category",
                "code": "exam",
                "display": "Exam"
              }
            ],
            "text": "Exam"
          }
        ],
        "code": {
          "coding": [
            {
              "system": "http://snomed.info/sct",
              "code": "162294008",
              "display": "Has difficulty with speech"
            }
          ],
          "text": "Difficulty with speech"
        },
        "subject": {
          "reference": "Patient/23073b5f-1394-4fbd-8fb3-59cd8e53a0c4"
        },
        "encounter": {
          "reference": "Encounter/efa0d19a-562c-407e-bd40-a9c2bdaadcc6"
        },
        "effectivePeriod": {
          "start": "2025-10-16"
        },
        "valueBoolean": true,
        "note": [
          {
            "text": "Definition: https://snomed.info/id/162294008"
          }
        ]
      },
      "request": {
        "method": "POST",
        "url": "Observation"
      }
    },
    {
      "fullUrl": "urn:uuid:b75f696f-08d6-441a-83a9-938fe646a4a6",
      "resource": {
        "resourceType": "Observation",
        "id": "b75f696f-08d6-441a-83a9-938fe646a4a6",
        "status": "final",
        "category": [
          {
            "coding": [
              {
                "system": "http://terminology.hl7.org/CodeSystem/observation-category",
                "code": "exam",
                "display": "Exam"
              }
            ],
            "text": "Exam"
          }
        ],
        "code": {
          "coding": [
            {
              "system": "http://snomed.info/sct",
              "code": "282716004",
              "display": "Gross motor functions"
            }
          ],
          "text": "Difficulty with gross motor skills"
        },
        "subject": {
          "reference": "Patient/23073b5f-1394-4fbd-8fb3-59cd8e53a0c4"
        },
        "encounter": {
          "reference": "Encounter/efa0d19a-562c-407e-bd40-a9c2bdaadcc6"
        },
        "effectivePeriod": {
          "start": "2025-10-16"
        },
        "valueBoolean": true,
        "note": [
          {
            "text": "Definition: https://snomed.info/id/282716004"
          }
        ]
      },
      "request": {
        "method": "POST",
        "url": "Observation"
      }
    },
    {
      "fullUrl": "urn:uuid:5d17e503-e275-45e3-8c51-0b896fcfa18b",
      "resource": {
        "resourceType": "Observation",
        "id": "5d17e503-e275-45e3-8c51-0b896fcfa18b",
        "status": "final",
        "category": [
          {
            "coding": [
              {
                "system": "http://terminology.hl7.org/CodeSystem/observation-category",
                "code": "vital-signs",
                "display": "Vital Signs"
              }
            ],
            "text": "Vital Signs"
          }
        ],
        "code": {
          "coding": [
            {
              "system": "http://loinc.org",
              "code": "8310-5",
              "display": "Body temperature"
            }
          ],
          "text": "temperature"
        },
        "subject": {
          "reference": "Patient/23073b5f-1394-4fbd-8fb3-59cd8e53a0c4"
        },
        "encounter": {
          "reference": "Encounter/efa0d19a-562c-407e-bd40-a9c2bdaadcc6"
        },
        "effectiveDateTime": "2025-10-16",
        "valueQuantity": {
          "value": 36.8,
          "unit": "°C",
          "system": "http://unitsofmeasure.org",
          "code": "°C"
        },
        "interpretation": [
          {
            "coding": [
              {
                "system": "http://terminology.hl7.org/CodeSystem/v3-ObservationInterpretation",
                "code": "N",
                "display": "Normal"
              }
            ],
            "text": "Normal"
          }
        ]
      },
      "request": {
        "method": "POST",
        "url": "Observation"
      }
    },
    {
      "fullUrl": "urn:uuid:d4bce30b-b7d1-4c8f-95f5-70b4445b51c3",
      "resource": {
        "resourceType": "Observation",
        "id": "d4bce30b-b7d1-4c8f-95f5-70b4445b51c3",
        "status": "final",
        "category": [
          {
            "coding": [
              {
                "system": "http://terminology.hl7.org/CodeSystem/observation-category",
                "code": "vital-signs",
                "display": "Vital Signs"
              }
            ],
            "text": "Vital Signs"
          }
        ],
        "code": {
          "coding": [
            {
              "system": "http://loinc.org",
              "code": "8337-8",
              "display": "Bdy weight special circumstances"
            }
          ],
          "text": "weight"
        },
        "subject": {
          "reference": "Patient/23073b5f-1394-4fbd-8fb3-59cd8e53a0c4"
        },
        "encounter": {
          "reference": "Encounter/efa0d19a-562c-407e-bd40-a9c2bdaadcc6"
        },
        "effectiveDateTime": "2025-10-16",
        "valueQuantity": {
          "value": 23.0,
          "unit": "kg",
          "system": "http://unitsofmeasure.org",
          "code": "kg"
        }
      },
      "request": {
        "method": "POST",
        "url": "Observation"
      }
    },
    {
      "fullUrl": "urn:uuid:99521efa-21e2-4040-8063-8b2677de56c9",
      "resource": {
        "resourceType": "Observation",
        "id": "99521efa-21e2-4040-8063-8b2677de56c9",
        "status": "final",
        "category": [
          {
            "coding": [
              {
                "system": "http://terminology.hl7.org/CodeSystem/observation-category",
                "code": "vital-signs",
                "display": "Vital Signs"
              }
            ],
            "text": "Vital Signs"
          }
        ],
        "code": {
          "coding": [
            {
              "system": "http://loinc.org",
              "code": "92998-4",
              "display": "Lower segment"
            }
          ],
          "text": "height"
        },
        "subject": {
          "reference": "Patient/23073b5f-1394-4fbd-8fb3-59cd8e53a0c4"
        },
        "encounter": {
          "reference": "Encounter/efa0d19a-562c-407e-bd40-a9c2bdaadcc6"
        },
        "effectiveDateTime": "2025-10-16",
        "valueQuantity": {
          "value": 110.0,
          "unit": "cm",
          "system": "http://unitsofmeasure.org",
          "code": "cm"
        }
      },
      "request": {
        "method": "POST",
        "url": "Observation"
      }
    },
    {
      "fullUrl": "urn:uuid:0efbf31e-8ab5-4295-a705-32ea73080710",
      "resource": {
        "resourceType": "Observation",
        "id": "0efbf31e-8ab5-4295-a705-32ea73080710",
        "status": "final",
        "category": [
          {
            "coding": [
              {
                "system": "http://terminology.hl7.org/CodeSystem/observation-category",
                "code": "vital-signs",
                "display": "Vital Signs"
              }
            ],
            "text": "Vital Signs"
          }
        ],
        "code": {
          "coding": [
            {
              "system": "http://loinc.org",
              "code": "107102-6",
              "display": "BMI formula"
            }
          ],
          "text": "BMI"
        },
        "subject": {
          "reference": "Patient/23073b5f-1394-4fbd-8fb3-59cd8e53a0c4"
        },
        "encounter": {
          "reference": "Encounter/efa0d19a-562c-407e-bd40-a9c2bdaadcc6"
        },
        "effectiveDateTime": "2025-10-16",
        "valueQuantity": {
          "value": 19.1,
          "unit": "kg/m²",
          "system": "http://unitsofmeasure.org",
          "code": "kg/m²"
        }
      },
      "request": {
        "method": "POST",
        "url": "Observation"
      }
    },
    {
      "fullUrl": "urn:uuid:58a3c063-7d1e-49af-8da8-725e93cbdd33",
      "resource": {
        "resourceType": "Observation",
        "id": "58a3c063-7d1e-49af-8da8-725e93cbdd33",
        "status": "final",
        "category": [
          {
            "coding": [
              {
                "system": "http://terminology.hl7.org/CodeSystem/observation-category",
                "code": "vital-signs",
                "display": "Vital Signs"
              }
            ],
            "text": "Vital Signs"
          }
        ],
        "code": {
          "coding": [
            {
              "system": "http://loinc.org",
              "code": "62733-1",
              "display": "PhenX - respiratory - pulse oximetry - rest protocol 091101"
            }
          ],
          "text": "pulse"
        },
        "subject": {
          "reference": "Patient/23073b5f-1394-4fbd-8fb3-59cd8e53a0c4"
        },
        "encounter": {
          "reference": "Encounter/efa0d19a-562c-407e-bd40-a9c2bdaadcc6"
        },
        "effectiveDateTime": "2025-10-16",
        "valueQuantity": {
          "value": 90.0,
          "unit": "bpm",
          "system": "http://unitsofmeasure.org",
          "code": "bpm"
        }
      },
      "request": {
        "method": "POST",
        "url": "Observation"
      }
    },
    {
      "fullUrl": "urn:uuid:69542b5a-900f-44d0-b39d-5e5c8f3eabd4",
      "resource": {
        "resourceType": "Observation",
        "id": "69542b5a-900f-44d0-b39d-5e5c8f3eabd4",
        "status": "final",
        "category": [
          {
            "coding": [
              {
                "system": "http://terminology.hl7.org/CodeSystem/observation-category",
                "code": "vital-signs",
                "display": "Vital Signs"
              }
            ],
            "text": "Vital Signs"
          }
        ],
        "code": {
          "coding": [
            {
              "system": "http://loinc.org",
              "code": "18684-1",
              "display": "Blood pressure"
            }
          ],
          "text": "blood pressure"
        },
        "subject": {
          "reference": "Patient/23073b5f-1394-4fbd-8fb3-59cd8e53a0c4"
        },
        "encounter": {
          "reference": "Encounter/efa0d19a-562c-407e-bd40-a9c2bdaadcc6"
        },
        "effectiveDateTime": "2025-10-16"
      },
      "request": {
        "method": "POST",
        "url": "Observation"
      }
    },
    {
      "fullUrl": "urn:uuid:4d519249-b469-4a52-aa35-a1acba83e8b1",
      "resource": {
        "resourceType": "Observation",
        "id": "4d519249-b469-4a52-aa35-a1acba83e8b1",
        "status": "final",
        "category": [
          {
            "coding": [
              {
                "system": "http://terminology.hl7.org/CodeSystem/observation-category",
                "code": "vital-signs",
                "display": "Vital Signs"
              }
            ],
            "text": "Vital Signs"
          }
        ],
        "code": {
          "coding": [
            {
              "system": "http://loinc.org",
              "code": "9279-1",
              "display": "Resp rate"
            }
          ],
          "text": "respiratory rate"
        },
        "subject": {
          "reference": "Patient/23073b5f-1394-4fbd-8fb3-59cd8e53a0c4"
        },
        "encounter": {
          "reference": "Encounter/efa0d19a-562c-407e-bd40-a9c2bdaadcc6"
        },
        "effectiveDateTime": "2025-10-16",
        "valueQuantity": {
          "value": 22.0,
          "unit": "breaths per minute",
          "system": "http://unitsofmeasure.org",
          "code": "breaths per minute"
        }
      },
      "request": {
        "method": "POST",
        "url": "Observation"
      }
    },
    {
      "fullUrl": "urn:uuid:1cd854cb-4239-4140-a20f-cbd26d4e8856",
      "resource": {
        "resourceType": "Encounter",
        "id": "1cd854cb-4239-4140-a20f-cbd26d4e8856",
        "identifier": [
          {
            "use": "temp",
            "value": "Encounter_Ethan Thompson_20251021094119"
          }
        ],
        "status": "completed",
        "priority": {
          "coding": [
            {
              "system": "http://snomed.info/sct",
              "code": "17621005",
              "display": "Normal"
            }
          ]
        },
        "type": [
          {
            "coding": [
              {
                "system": "http://snomed.info/sct",
                "code": "11429006",
                "display": "Consultation"
              }
            ]
          }
        ],
        "subject": {
          "reference": "Patient/23073b5f-1394-4fbd-8fb3-59cd8e53a0c4",
          "display": "Ethan Thompson"
        }
      },
      "request": {
        "method": "POST",
        "url": "Encounter"
      }
    },
    {
      "fullUrl": "urn:uuid:1084e786-374a-43e3-8633-76ae316d32d9",
      "resource": {
        "resourceType": "Observation",
        "id": "1084e786-374a-43e3-8633-76ae316d32d9",
        "status": "final",
        "category": [
          {
            "coding": [
              {
                "system": "http://terminology.hl7.org/CodeSystem/observation-category",
                "code": "vital-signs",
                "display": "Vital Signs"
              }
            ],
            "text": "Vital Signs"
          }
        ],
        "code": {
          "coding": [
            {
              "system": "http://loinc.org",
              "code": "8337-8",
              "display": "Bdy weight special circumstances"
            }
          ],
          "text": "weight"
        },
        "subject": {
          "reference": "Patient/23073b5f-1394-4fbd-8fb3-59cd8e53a0c4"
        },
        "encounter": {
          "reference": "Encounter/1cd854cb-4239-4140-a20f-cbd26d4e8856"
        },
        "effectiveDateTime": "2025-08-16"
      },
      "request": {
        "method": "POST",
        "url": "Observation"
      }
    },
    {
      "fullUrl": "urn:uuid:6727c53f-39d4-470e-8495-6733270dd739",
      "resource": {
        "resourceType": "List",
        "id": "6727c53f-39d4-470e-8495-6733270dd739",
        "contained": [
          {
            "resourceType": "FamilyMemberHistory",
            "id": "fmh-3",
            "status": "completed",
            "patient": {
              "reference": "Patient/23073b5f-1394-4fbd-8fb3-59cd8e53a0c4"
            },
            "relationship": {
              "coding": [
                {
                  "system": "http://snomed.info/sct",
                  "code": "375005",
                  "display": "Sibling"
                }
              ]
            },
            "deceasedBoolean": false,
            "condition": []
          }
        ],
        "status": "current",
        "mode": "snapshot",
        "code": {
          "coding": [
            {
              "system": "http://loinc.org",
              "code": "8670-2",
              "display": "History of family member diseases"
            }
          ]
        },
        "subject": [
          {
            "reference": "Patient/23073b5f-1394-4fbd-8fb3-59cd8e53a0c4"
          }
        ],
        "note": [
          {
            "text": "Both parents are alive and healthy, though his father has a history of obesity. Ethan's 7-year-old sister is healthy and developing normally."
          }
        ],
        "entry": [
          {
            "item": {
              "reference": "#fmh-3"
            }
          }
        ]
      },
      "request": {
        "method": "POST",
        "url": "FamilyMemberHistory"
      }
    }
  ]
}