{
  "resourceType": "Bundle",
  "type": "transaction",
  "entry": [
    {
      "fullUrl": "urn:uuid:9bcef896-46e9-4f4d-a93b-a76ee0c48d0d",
      "resource": {
        "resourceType": "Patient",
        "id": "9bcef896-46e9-4f4d-a93b-a76ee0c48d0d",
        "name": [
          {
            "family": "Vasquez",
            "given": [
              "Elena"
            ]
          }
        ],
        "gender": "female",
        "birthDate": "1987-01-01",
        "address": [
          {}
        ]
      },
      "request": {
        "method": "POST",
        "url": "Patient"
      }
    },
    {
      "fullUrl": "urn:uuid:d1ede893-e336-4518-a0f7-b638354fcb48",
      "resource": {
        "resourceType": "Encounter",
        "id": "d1ede893-e336-4518-a0f7-b638354fcb48",
        "identifier": [
          {
            "use": "temp",
            "value": "Encounter_Elena Vasquez_20251021093218"
          }
        ],
        "status": "completed",
        "priority": {
          "coding": [
            {
              "system": "http://snomed.info/sct",
              "code": "17621005",
              "display": "Normal"
            }
          ]
        },
        "type": [
          {
            "coding": [
              {
                "system": "http://snomed.info/sct",
                "code": "11429006",
                "display": "Consultation"
              }
            ]
          }
        ],
        "subject": {
          "reference": "Patient/9bcef896-46e9-4f4d-a93b-a76ee0c48d0d",
          "display": "Elena Vasquez"
        },
        "reason": [
          {
            "value": [
              {
                "concept": {
                  "text": "intermittent abdominal pain and bloating"
                }
              }
            ]
          }
        ]
      },
      "request": {
        "method": "POST",
        "url": "Encounter"
      }
    },
    {
      "fullUrl": "urn:uuid:5238e766-e50d-4324-a33a-7af1a8d2b800",
      "resource": {
        "resourceType": "Observation",
        "id": "5238e766-e50d-4324-a33a-7af1a8d2b800",
        "status": "final",
        "category": [
          {
            "coding": [
              {
                "system": "http://terminology.hl7.org/CodeSystem/observation-category",
                "code": "laboratory",
                "display": "Laboratory"
              }
            ],
            "text": "Laboratory"
          }
        ],
        "code": {
          "coding": [
            {
              "system": "http://loinc.org",
              "code": "93005-7",
              "display": "Rapid alt hand move - L+R mean Score"
            }
          ],
          "text": "ALT"
        },
        "subject": {
          "reference": "Patient/9bcef896-46e9-4f4d-a93b-a76ee0c48d0d"
        },
        "encounter": {
          "reference": "Encounter/d1ede893-e336-4518-a0f7-b638354fcb48"
        },
        "effectiveDateTime": "2025-10-16",
        "valueQuantity": {
          "value": 42.0,
          "unit": "U/L",
          "system": "http://unitsofmeasure.org",
          "code": "U/L"
        },
        "interpretation": [
          {
            "coding": [
              {
                "system": "http://terminology.hl7.org/CodeSystem/v3-ObservationInterpretation",
                "code": "H",
                "display": "High"
              }
            ]
          }
        ],
        "note": [
          {
            "text": "Definition: https://loinc.org/93005-7/"
          }
        ]
      },
      "request": {
        "method": "POST",
        "url": "Observation"
      }
    },
    {
      "fullUrl": "urn:uuid:802284bb-c235-4a50-9db1-7438054e53f0",
      "resource": {
        "resourceType": "Observation",
        "id": "802284bb-c235-4a50-9db1-7438054e53f0",
        "status": "final",
        "category": [
          {
            "coding": [
              {
                "system": "http://terminology.hl7.org/CodeSystem/observation-category",
                "code": "laboratory",
                "display": "Laboratory"
              }
            ],
            "text": "Laboratory"
          }
        ],
        "code": {
          "coding": [
            {
              "system": "http://loinc.org",
              "code": "1917-4",
              "display": "AST Amn-cCnc"
            }
          ],
          "text": "AST"
        },
        "subject": {
          "reference": "Patient/9bcef896-46e9-4f4d-a93b-a76ee0c48d0d"
        },
        "encounter": {
          "reference": "Encounter/d1ede893-e336-4518-a0f7-b638354fcb48"
        },
        "effectiveDateTime": "2025-10-16",
        "valueQuantity": {
          "value": 35.0,
          "unit": "U/L",
          "system": "http://unitsofmeasure.org",
          "code": "U/L"
        },
        "interpretation": [
          {
            "coding": [
              {
                "system": "http://terminology.hl7.org/CodeSystem/v3-ObservationInterpretation",
                "code": "H",
                "display": "High"
              }
            ]
          }
        ],
        "note": [
          {
            "text": "Definition: https://loinc.org/1917-4/"
          }
        ]
      },
      "request": {
        "method": "POST",
        "url": "Observation"
      }
    },
    {
      "fullUrl": "urn:uuid:9e0420af-abab-4b45-8ddd-a80fd0d98422",
      "resource": {
        "resourceType": "Observation",
        "id": "9e0420af-abab-4b45-8ddd-a80fd0d98422",
        "status": "final",
        "category": [
          {
            "coding": [
              {
                "system": "http://terminology.hl7.org/CodeSystem/observation-category",
                "code": "laboratory",
                "display": "Laboratory"
              }
            ],
            "text": "Laboratory"
          }
        ],
        "code": {
          "coding": [
            {
              "system": "http://loinc.org",
              "code": "58410-2",
              "display": "Complete blood count panel"
            }
          ],
          "text": "Complete Blood Count"
        },
        "subject": {
          "reference": "Patient/9bcef896-46e9-4f4d-a93b-a76ee0c48d0d"
        },
        "encounter": {
          "reference": "Encounter/d1ede893-e336-4518-a0f7-b638354fcb48"
        },
        "effectiveDateTime": "2025-10-16",
        "interpretation": [
          {
            "coding": [
              {
                "system": "http://terminology.hl7.org/CodeSystem/v3-ObservationInterpretation",
                "code": "N",
                "display": "Normal"
              }
            ]
          }
        ],
        "note": [
          {
            "text": "Definition: https://loinc.org/58410-2/"
          }
        ]
      },
      "request": {
        "method": "POST",
        "url": "Observation"
      }
    },
    {
      "fullUrl": "urn:uuid:e5cd61a7-e444-438c-bfef-4e12dc880c9e",
      "resource": {
        "resourceType": "Observation",
        "id": "e5cd61a7-e444-438c-bfef-4e12dc880c9e",
        "status": "final",
        "category": [
          {
            "coding": [
              {
                "system": "http://terminology.hl7.org/CodeSystem/observation-category",
                "code": "laboratory",
                "display": "Laboratory"
              }
            ],
            "text": "Laboratory"
          }
        ],
        "code": {
          "coding": [
            {
              "system": "http://loinc.org",
              "code": "71426-1",
              "display": "CRP Bld HS-mCnc"
            }
          ],
          "text": "CRP"
        },
        "subject": {
          "reference": "Patient/9bcef896-46e9-4f4d-a93b-a76ee0c48d0d"
        },
        "encounter": {
          "reference": "Encounter/d1ede893-e336-4518-a0f7-b638354fcb48"
        },
        "effectiveDateTime": "2025-10-16",
        "interpretation": [
          {
            "coding": [
              {
                "system": "http://terminology.hl7.org/CodeSystem/v3-ObservationInterpretation",
                "code": "N",
                "display": "Normal"
              }
            ]
          }
        ],
        "note": [
          {
            "text": "Definition: https://loinc.org/71426-1/"
          }
        ]
      },
      "request": {
        "method": "POST",
        "url": "Observation"
      }
    },
    {
      "fullUrl": "urn:uuid:111b525c-e7e8-440d-a06a-a71da1c8041f",
      "resource": {
        "resourceType": "Observation",
        "id": "111b525c-e7e8-440d-a06a-a71da1c8041f",
        "status": "final",
        "category": [
          {
            "coding": [
              {
                "system": "http://terminology.hl7.org/CodeSystem/observation-category",
                "code": "exam",
                "display": "Exam"
              }
            ],
            "text": "Exam"
          }
        ],
        "code": {
          "coding": [
            {
              "system": "http://snomed.info/sct",
              "code": "21522001",
              "display": "Abdominal pain"
            }
          ],
          "text": "Abdominal pain"
        },
        "subject": {
          "reference": "Patient/9bcef896-46e9-4f4d-a93b-a76ee0c48d0d"
        },
        "encounter": {
          "reference": "Encounter/d1ede893-e336-4518-a0f7-b638354fcb48"
        },
        "effectivePeriod": {
          "start": "2025-10-16"
        },
        "valueBoolean": true,
        "note": [
          {
            "text": "Definition: https://snomed.info/id/21522001"
          }
        ]
      },
      "request": {
        "method": "POST",
        "url": "Observation"
      }
    },
    {
      "fullUrl": "urn:uuid:5a16e810-6667-4dc1-8300-95571b8c3d70",
      "resource": {
        "resourceType": "Observation",
        "id": "5a16e810-6667-4dc1-8300-95571b8c3d70",
        "status": "final",
        "category": [
          {
            "coding": [
              {
                "system": "http://terminology.hl7.org/CodeSystem/observation-category",
                "code": "exam",
                "display": "Exam"
              }
            ],
            "text": "Exam"
          }
        ],
        "code": {
          "coding": [
            {
              "system": "http://snomed.info/sct",
              "code": "722879009",
              "display": "Functional bloating"
            }
          ],
          "text": "Bloating"
        },
        "subject": {
          "reference": "Patient/9bcef896-46e9-4f4d-a93b-a76ee0c48d0d"
        },
        "encounter": {
          "reference": "Encounter/d1ede893-e336-4518-a0f7-b638354fcb48"
        },
        "effectivePeriod": {
          "start": "2025-10-16"
        },
        "valueBoolean": true,
        "note": [
          {
            "text": "Definition: https://snomed.info/id/722879009"
          }
        ]
      },
      "request": {
        "method": "POST",
        "url": "Observation"
      }
    },
    {
      "fullUrl": "urn:uuid:0807f488-baaf-4db6-8e80-072ca3c32e02",
      "resource": {
        "resourceType": "Observation",
        "id": "0807f488-baaf-4db6-8e80-072ca3c32e02",
        "status": "final",
        "category": [
          {
            "coding": [
              {
                "system": "http://terminology.hl7.org/CodeSystem/observation-category",
                "code": "exam",
                "display": "Exam"
              }
            ],
            "text": "Exam"
          }
        ],
        "code": {
          "coding": [
            {
              "system": "http://snomed.info/sct",
              "code": "62315008",
              "display": "Diarrhea"
            }
          ],
          "text": "Diarrhea"
        },
        "subject": {
          "reference": "Patient/9bcef896-46e9-4f4d-a93b-a76ee0c48d0d"
        },
        "encounter": {
          "reference": "Encounter/d1ede893-e336-4518-a0f7-b638354fcb48"
        },
        "effectivePeriod": {
          "start": "2025-10-16"
        },
        "valueBoolean": true,
        "note": [
          {
            "text": "Definition: https://snomed.info/id/62315008"
          }
        ]
      },
      "request": {
        "method": "POST",
        "url": "Observation"
      }
    },
    {
      "fullUrl": "urn:uuid:4e82c930-2e54-4564-9abb-e07a68cb79bc",
      "resource": {
        "resourceType": "Observation",
        "id": "4e82c930-2e54-4564-9abb-e07a68cb79bc",
        "status": "final",
        "category": [
          {
            "coding": [
              {
                "system": "http://terminology.hl7.org/CodeSystem/observation-category",
                "code": "vital-signs",
                "display": "Vital Signs"
              }
            ],
            "text": "Vital Signs"
          }
        ],
        "code": {
          "coding": [
            {
              "system": "http://loinc.org",
              "code": "18684-1",
              "display": "Blood pressure"
            }
          ],
          "text": "Blood Pressure"
        },
        "subject": {
          "reference": "Patient/9bcef896-46e9-4f4d-a93b-a76ee0c48d0d"
        },
        "encounter": {
          "reference": "Encounter/d1ede893-e336-4518-a0f7-b638354fcb48"
        },
        "effectiveDateTime": "2025-10-16",
        "valueQuantity": {
          "value": 128.0,
          "unit": "mmHg",
          "system": "http://unitsofmeasure.org",
          "code": "mmHg"
        }
      },
      "request": {
        "method": "POST",
        "url": "Observation"
      }
    },
    {
      "fullUrl": "urn:uuid:37906108-44f6-4d20-95bf-378adf441bf4",
      "resource": {
        "resourceType": "Observation",
        "id": "37906108-44f6-4d20-95bf-378adf441bf4",
        "status": "final",
        "category": [
          {
            "coding": [
              {
                "system": "http://terminology.hl7.org/CodeSystem/observation-category",
                "code": "vital-signs",
                "display": "Vital Signs"
              }
            ],
            "text": "Vital Signs"
          }
        ],
        "code": {
          "coding": [
            {
              "system": "http://loinc.org",
              "code": "62733-1",
              "display": "PhenX - respiratory - pulse oximetry - rest protocol 091101"
            }
          ],
          "text": "Pulse"
        },
        "subject": {
          "reference": "Patient/9bcef896-46e9-4f4d-a93b-a76ee0c48d0d"
        },
        "encounter": {
          "reference": "Encounter/d1ede893-e336-4518-a0f7-b638354fcb48"
        },
        "effectiveDateTime": "2025-10-16",
        "valueQuantity": {
          "value": 74.0,
          "unit": "bpm",
          "system": "http://unitsofmeasure.org",
          "code": "bpm"
        }
      },
      "request": {
        "method": "POST",
        "url": "Observation"
      }
    },
    {
      "fullUrl": "urn:uuid:f6cec1ab-bbd6-48b6-964d-94665e8a5132",
      "resource": {
        "resourceType": "Observation",
        "id": "f6cec1ab-bbd6-48b6-964d-94665e8a5132",
        "status": "final",
        "category": [
          {
            "coding": [
              {
                "system": "http://terminology.hl7.org/CodeSystem/observation-category",
                "code": "vital-signs",
                "display": "Vital Signs"
              }
            ],
            "text": "Vital Signs"
          }
        ],
        "code": {
          "coding": [
            {
              "system": "http://loinc.org",
              "code": "107102-6",
              "display": "BMI formula"
            }
          ],
          "text": "BMI"
        },
        "subject": {
          "reference": "Patient/9bcef896-46e9-4f4d-a93b-a76ee0c48d0d"
        },
        "encounter": {
          "reference": "Encounter/d1ede893-e336-4518-a0f7-b638354fcb48"
        },
        "effectiveDateTime": "2025-10-16",
        "valueQuantity": {
          "value": 25.1,
          "unit": "kg/m²",
          "system": "http://unitsofmeasure.org",
          "code": "kg/m²"
        }
      },
      "request": {
        "method": "POST",
        "url": "Observation"
      }
    },
    {
      "fullUrl": "urn:uuid:49ab7c48-83df-4674-88e2-5de0acb332ba",
      "resource": {
        "resourceType": "MedicationStatement",
        "id": "49ab7c48-83df-4674-88e2-5de0acb332ba",
        "status": "recorded",
        "medication": {
          "concept": {
            "coding": [
              {
                "system": "http://snomed.info/sct",
                "code": "412250002",
                "display": "Multivitamin agent"
              }
            ],
            "text": "Multivitamin"
          }
        },
        "subject": {
          "reference": "Patient/9bcef896-46e9-4f4d-a93b-a76ee0c48d0d"
        },
        "encounter": {
          "reference": "Encounter/d1ede893-e336-4518-a0f7-b638354fcb48"
        },
        "effectiveDateTime": "2025-10-16",
        "informationSource": [
          {
            "reference": "Patient/9bcef896-46e9-4f4d-a93b-a76ee0c48d0d"
          }
        ],
        "dosage": [
          {
            "text": "daily",
            "timing": {
              "repeat": {
                "frequency": 1,
                "period": 1.0,
                "periodUnit": "d"
              }
            }
          }
        ]
      },
      "request": {
        "method": "POST",
        "url": "MedicationStatement"
      }
    },
    {
      "fullUrl": "urn:uuid:6e284cba-7861-4476-bd05-b4122b806715",
      "resource": {
        "resourceType": "MedicationStatement",
        "id": "6e284cba-7861-4476-bd05-b4122b806715",
        "status": "recorded",
        "medication": {
          "concept": {
            "coding": [
              {
                "system": "http://snomed.info/sct",
                "code": "372794006",
                "display": "Antacid"
              }
            ],
            "text": "Antacid"
          }
        },
        "subject": {
          "reference": "Patient/9bcef896-46e9-4f4d-a93b-a76ee0c48d0d"
        },
        "encounter": {
          "reference": "Encounter/d1ede893-e336-4518-a0f7-b638354fcb48"
        },
        "effectiveDateTime": "2025-10-16",
        "informationSource": [
          {
            "reference": "Patient/9bcef896-46e9-4f4d-a93b-a76ee0c48d0d"
          }
        ],
        "dosage": [
          {
            "text": "occasional"
          }
        ]
      },
      "request": {
        "method": "POST",
        "url": "MedicationStatement"
      }
    },
    {
      "fullUrl": "urn:uuid:cb1523da-7bbc-4c0c-943a-3d40be2935a3",
      "resource": {
        "resourceType": "List",
        "id": "cb1523da-7bbc-4c0c-943a-3d40be2935a3",
        "contained": [
          {
            "resourceType": "FamilyMemberHistory",
            "id": "fmh-2",
            "status": "completed",
            "patient": {
              "reference": "Patient/9bcef896-46e9-4f4d-a93b-a76ee0c48d0d"
            },
            "relationship": {
              "coding": [
                {
                  "system": "http://snomed.info/sct",
                  "code": "66839005",
                  "display": "Father"
                }
              ]
            },
            "deceasedBoolean": false,
            "condition": [
              {
                "code": {
                  "coding": [
                    {
                      "system": "http://snomed.info/sct",
                      "code": "38341003",
                      "display": "Hypertensive disorder"
                    }
                  ]
                }
              }
            ]
          }
        ],
        "status": "current",
        "mode": "snapshot",
        "code": {
          "coding": [
            {
              "system": "http://loinc.org",
              "code": "8670-2",
              "display": "History of family member diseases"
            }
          ]
        },
        "subject": [
          {
            "reference": "Patient/9bcef896-46e9-4f4d-a93b-a76ee0c48d0d"
          }
        ],
        "entry": [
          {
            "item": {
              "reference": "#fmh-2"
            }
          }
        ]
      },
      "request": {
        "method": "POST",
        "url": "FamilyMemberHistory"
      }
    }
  ]
}