{
  "resourceType": "Bundle",
  "type": "transaction",
  "entry": [
    {
      "fullUrl": "urn:uuid:256e530d-7c8a-436a-b49c-530ad07e992c",
      "resource": {
        "resourceType": "Patient",
        "id": "256e530d-7c8a-436a-b49c-530ad07e992c",
        "name": [
          {
            "family": "Markova",
            "given": [
              "Mila"
            ]
          }
        ],
        "gender": "female",
        "birthDate": "1997-01-01",
        "address": [
          {}
        ]
      },
      "request": {
        "method": "POST",
        "url": "Patient"
      }
    },
    {
      "fullUrl": "urn:uuid:726ffbba-86c5-447e-9a01-1961d25cc200",
      "resource": {
        "resourceType": "Encounter",
        "id": "726ffbba-86c5-447e-9a01-1961d25cc200",
        "identifier": [
          {
            "use": "temp",
            "value": "Encounter_Mila Markova_20251020131609"
          }
        ],
        "status": "completed",
        "priority": {
          "coding": [
            {
              "system": "http://snomed.info/sct",
              "code": "17621005",
              "display": "Normal"
            }
          ]
        },
        "type": [
          {
            "coding": [
              {
                "system": "http://snomed.info/sct",
                "code": "11429006",
                "display": "Consultation"
              }
            ]
          }
        ],
        "subject": {
          "reference": "Patient/256e530d-7c8a-436a-b49c-530ad07e992c",
          "display": "Mila Markova"
        },
        "reason": [
          {
            "value": [
              {
                "concept": {
                  "text": "persistent low-grade fever, muscle aches, and unintentional weight loss"
                }
              }
            ]
          }
        ]
      },
      "request": {
        "method": "POST",
        "url": "Encounter"
      }
    },
    {
      "fullUrl": "urn:uuid:7b320839-92b2-4a08-ab26-612a32357d7f",
      "resource": {
        "resourceType": "Observation",
        "id": "7b320839-92b2-4a08-ab26-612a32357d7f",
        "status": "final",
        "category": [
          {
            "coding": [
              {
                "system": "http://terminology.hl7.org/CodeSystem/observation-category",
                "code": "laboratory",
                "display": "Laboratory"
              }
            ],
            "text": "Laboratory"
          }
        ],
        "code": {
          "coding": [
            {
              "system": "http://loinc.org",
              "code": "unknown",
              "display": "Erythrocyte Sedimentation Rate (ESR)"
            }
          ],
          "text": "Erythrocyte Sedimentation Rate (ESR)"
        },
        "subject": {
          "reference": "Patient/256e530d-7c8a-436a-b49c-530ad07e992c"
        },
        "encounter": {
          "reference": "Encounter/726ffbba-86c5-447e-9a01-1961d25cc200"
        },
        "effectiveDateTime": "2025-10-16",
        "interpretation": [
          {
            "coding": [
              {
                "system": "http://terminology.hl7.org/CodeSystem/v3-ObservationInterpretation",
                "code": "H",
                "display": "High"
              }
            ]
          }
        ]
      },
      "request": {
        "method": "POST",
        "url": "Observation"
      }
    },
    {
      "fullUrl": "urn:uuid:f5ba5cb6-9c5b-44b5-930a-8eca4a235ccb",
      "resource": {
        "resourceType": "Observation",
        "id": "f5ba5cb6-9c5b-44b5-930a-8eca4a235ccb",
        "status": "final",
        "category": [
          {
            "coding": [
              {
                "system": "http://terminology.hl7.org/CodeSystem/observation-category",
                "code": "laboratory",
                "display": "Laboratory"
              }
            ],
            "text": "Laboratory"
          }
        ],
        "code": {
          "coding": [
            {
              "system": "http://loinc.org",
              "code": "35648-5",
              "display": "CRP Quint SerPl Qn HS"
            }
          ],
          "text": "C-Reactive Protein (CRP)"
        },
        "subject": {
          "reference": "Patient/256e530d-7c8a-436a-b49c-530ad07e992c"
        },
        "encounter": {
          "reference": "Encounter/726ffbba-86c5-447e-9a01-1961d25cc200"
        },
        "effectiveDateTime": "2025-10-16",
        "interpretation": [
          {
            "coding": [
              {
                "system": "http://terminology.hl7.org/CodeSystem/v3-ObservationInterpretation",
                "code": "H",
                "display": "High"
              }
            ]
          }
        ],
        "note": [
          {
            "text": "Definition: https://loinc.org/35648-5/"
          }
        ]
      },
      "request": {
        "method": "POST",
        "url": "Observation"
      }
    },
    {
      "fullUrl": "urn:uuid:52b59be3-94bd-451c-92ea-0d86b74bd736",
      "resource": {
        "resourceType": "Observation",
        "id": "52b59be3-94bd-451c-92ea-0d86b74bd736",
        "status": "final",
        "category": [
          {
            "coding": [
              {
                "system": "http://terminology.hl7.org/CodeSystem/observation-category",
                "code": "laboratory",
                "display": "Laboratory"
              }
            ],
            "text": "Laboratory"
          }
        ],
        "code": {
          "coding": [
            {
              "system": "http://loinc.org",
              "code": "unknown",
              "display": "Antinuclear Antibody (ANA) Test"
            }
          ],
          "text": "Antinuclear Antibody (ANA) Test"
        },
        "subject": {
          "reference": "Patient/256e530d-7c8a-436a-b49c-530ad07e992c"
        },
        "encounter": {
          "reference": "Encounter/726ffbba-86c5-447e-9a01-1961d25cc200"
        },
        "effectiveDateTime": "2025-10-16"
      },
      "request": {
        "method": "POST",
        "url": "Observation"
      }
    },
    {
      "fullUrl": "urn:uuid:cbef7e10-2037-4bd9-9dc1-3abed1670616",
      "resource": {
        "resourceType": "Observation",
        "id": "cbef7e10-2037-4bd9-9dc1-3abed1670616",
        "status": "final",
        "category": [
          {
            "coding": [
              {
                "system": "http://terminology.hl7.org/CodeSystem/observation-category",
                "code": "laboratory",
                "display": "Laboratory"
              }
            ],
            "text": "Laboratory"
          }
        ],
        "code": {
          "coding": [
            {
              "system": "http://loinc.org",
              "code": "111462-8",
              "display": "dsDNA Ab Msmt Ser"
            }
          ],
          "text": "Anti-dsDNA"
        },
        "subject": {
          "reference": "Patient/256e530d-7c8a-436a-b49c-530ad07e992c"
        },
        "encounter": {
          "reference": "Encounter/726ffbba-86c5-447e-9a01-1961d25cc200"
        },
        "effectiveDateTime": "2025-10-16",
        "note": [
          {
            "text": "Definition: https://loinc.org/111462-8/"
          }
        ]
      },
      "request": {
        "method": "POST",
        "url": "Observation"
      }
    },
    {
      "fullUrl": "urn:uuid:9c777290-6032-4a8b-b944-2d06a96daaad",
      "resource": {
        "resourceType": "Observation",
        "id": "9c777290-6032-4a8b-b944-2d06a96daaad",
        "status": "final",
        "category": [
          {
            "coding": [
              {
                "system": "http://terminology.hl7.org/CodeSystem/observation-category",
                "code": "exam",
                "display": "Exam"
              }
            ],
            "text": "Exam"
          }
        ],
        "code": {
          "coding": [
            {
              "system": "http://snomed.info/sct",
              "code": "369766003",
              "display": "Low grade (lymphoma)"
            }
          ],
          "text": "Low-grade fever"
        },
        "subject": {
          "reference": "Patient/256e530d-7c8a-436a-b49c-530ad07e992c"
        },
        "encounter": {
          "reference": "Encounter/726ffbba-86c5-447e-9a01-1961d25cc200"
        },
        "effectivePeriod": {
          "start": "2025-10-16"
        },
        "valueBoolean": true,
        "note": [
          {
            "text": "Definition: https://snomed.info/id/369766003"
          }
        ]
      },
      "request": {
        "method": "POST",
        "url": "Observation"
      }
    },
    {
      "fullUrl": "urn:uuid:3f2e88c0-f944-4c71-9d7e-d3f3d8956e88",
      "resource": {
        "resourceType": "Observation",
        "id": "3f2e88c0-f944-4c71-9d7e-d3f3d8956e88",
        "status": "final",
        "category": [
          {
            "coding": [
              {
                "system": "http://terminology.hl7.org/CodeSystem/observation-category",
                "code": "exam",
                "display": "Exam"
              }
            ],
            "text": "Exam"
          }
        ],
        "code": {
          "coding": [
            {
              "system": "http://snomed.info/sct",
              "code": "82991003",
              "display": "Generalized aches and pains"
            }
          ],
          "text": "Muscle aches"
        },
        "subject": {
          "reference": "Patient/256e530d-7c8a-436a-b49c-530ad07e992c"
        },
        "encounter": {
          "reference": "Encounter/726ffbba-86c5-447e-9a01-1961d25cc200"
        },
        "effectivePeriod": {
          "start": "2025-10-16"
        },
        "valueBoolean": true,
        "note": [
          {
            "text": "Definition: https://snomed.info/id/82991003"
          }
        ]
      },
      "request": {
        "method": "POST",
        "url": "Observation"
      }
    },
    {
      "fullUrl": "urn:uuid:b7101436-a4a8-4e01-a334-b8b85c1d9dec",
      "resource": {
        "resourceType": "Observation",
        "id": "b7101436-a4a8-4e01-a334-b8b85c1d9dec",
        "status": "final",
        "category": [
          {
            "coding": [
              {
                "system": "http://terminology.hl7.org/CodeSystem/observation-category",
                "code": "exam",
                "display": "Exam"
              }
            ],
            "text": "Exam"
          }
        ],
        "code": {
          "coding": [
            {
              "system": "http://snomed.info/sct",
              "code": "448765001",
              "display": "Unintentional weight loss"
            }
          ],
          "text": "Unintentional weight loss"
        },
        "subject": {
          "reference": "Patient/256e530d-7c8a-436a-b49c-530ad07e992c"
        },
        "encounter": {
          "reference": "Encounter/726ffbba-86c5-447e-9a01-1961d25cc200"
        },
        "effectivePeriod": {
          "start": "2025-10-16"
        },
        "valueBoolean": true,
        "note": [
          {
            "text": "Definition: https://snomed.info/id/448765001"
          }
        ]
      },
      "request": {
        "method": "POST",
        "url": "Observation"
      }
    },
    {
      "fullUrl": "urn:uuid:1828c072-c098-463b-b436-a0eaaf2239f5",
      "resource": {
        "resourceType": "Observation",
        "id": "1828c072-c098-463b-b436-a0eaaf2239f5",
        "status": "final",
        "category": [
          {
            "coding": [
              {
                "system": "http://terminology.hl7.org/CodeSystem/observation-category",
                "code": "exam",
                "display": "Exam"
              }
            ],
            "text": "Exam"
          }
        ],
        "code": {
          "coding": [
            {
              "system": "http://snomed.info/sct",
              "code": "125318001",
              "display": "Multiple ulcers"
            }
          ],
          "text": "Mouth ulcers"
        },
        "subject": {
          "reference": "Patient/256e530d-7c8a-436a-b49c-530ad07e992c"
        },
        "encounter": {
          "reference": "Encounter/726ffbba-86c5-447e-9a01-1961d25cc200"
        },
        "effectivePeriod": {
          "start": "2025-10-16"
        },
        "valueBoolean": true,
        "note": [
          {
            "text": "Definition: https://snomed.info/id/125318001"
          }
        ]
      },
      "request": {
        "method": "POST",
        "url": "Observation"
      }
    },
    {
      "fullUrl": "urn:uuid:c3f4841c-7b2b-487c-9280-fd4f2fa8809d",
      "resource": {
        "resourceType": "Observation",
        "id": "c3f4841c-7b2b-487c-9280-fd4f2fa8809d",
        "status": "final",
        "category": [
          {
            "coding": [
              {
                "system": "http://terminology.hl7.org/CodeSystem/observation-category",
                "code": "exam",
                "display": "Exam"
              }
            ],
            "text": "Exam"
          }
        ],
        "code": {
          "coding": [
            {
              "system": "http://snomed.info/sct",
              "code": "827160004",
              "display": "Erythematous rash"
            }
          ],
          "text": "Erythematous rash"
        },
        "subject": {
          "reference": "Patient/256e530d-7c8a-436a-b49c-530ad07e992c"
        },
        "encounter": {
          "reference": "Encounter/726ffbba-86c5-447e-9a01-1961d25cc200"
        },
        "effectivePeriod": {
          "start": "2025-10-16"
        },
        "valueBoolean": true,
        "note": [
          {
            "text": "Definition: https://snomed.info/id/827160004"
          }
        ]
      },
      "request": {
        "method": "POST",
        "url": "Observation"
      }
    },
    {
      "fullUrl": "urn:uuid:1533e94c-ba2e-47c3-8609-c4f3cb36a6fc",
      "resource": {
        "resourceType": "Observation",
        "id": "1533e94c-ba2e-47c3-8609-c4f3cb36a6fc",
        "status": "final",
        "category": [
          {
            "coding": [
              {
                "system": "http://terminology.hl7.org/CodeSystem/observation-category",
                "code": "vital-signs",
                "display": "Vital Signs"
              }
            ],
            "text": "Vital Signs"
          }
        ],
        "code": {
          "coding": [
            {
              "system": "http://loinc.org",
              "code": "8310-5",
              "display": "Body temperature"
            }
          ],
          "text": "temperature"
        },
        "subject": {
          "reference": "Patient/256e530d-7c8a-436a-b49c-530ad07e992c"
        },
        "encounter": {
          "reference": "Encounter/726ffbba-86c5-447e-9a01-1961d25cc200"
        },
        "effectiveDateTime": "2025-10-16",
        "valueQuantity": {
          "value": 38.0,
          "unit": "degrees C",
          "system": "http://unitsofmeasure.org",
          "code": "degrees C"
        },
        "interpretation": [
          {
            "coding": [
              {
                "system": "http://terminology.hl7.org/CodeSystem/v3-ObservationInterpretation",
                "code": "H",
                "display": "High"
              }
            ],
            "text": "High"
          }
        ]
      },
      "request": {
        "method": "POST",
        "url": "Observation"
      }
    },
    {
      "fullUrl": "urn:uuid:59aa81ab-0a33-47f6-893f-b6eccb7ed4af",
      "resource": {
        "resourceType": "List",
        "id": "59aa81ab-0a33-47f6-893f-b6eccb7ed4af",
        "contained": [
          {
            "resourceType": "FamilyMemberHistory",
            "id": "fmh-1",
            "status": "completed",
            "patient": {
              "reference": "Patient/256e530d-7c8a-436a-b49c-530ad07e992c"
            },
            "relationship": {
              "coding": [
                {
                  "system": "http://snomed.info/sct",
                  "code": "736454006",
                  "display": "Maternal aunt"
                }
              ]
            },
            "deceasedBoolean": false,
            "condition": [
              {
                "code": {
                  "coding": [
                    {
                      "system": "http://snomed.info/sct",
                      "code": "200936003",
                      "display": "Lupus erythematosus"
                    }
                  ]
                }
              }
            ]
          }
        ],
        "status": "current",
        "mode": "snapshot",
        "code": {
          "coding": [
            {
              "system": "http://loinc.org",
              "code": "8670-2",
              "display": "History of family member diseases"
            }
          ]
        },
        "subject": [
          {
            "reference": "Patient/256e530d-7c8a-436a-b49c-530ad07e992c"
          }
        ],
        "note": [
          {
            "text": "Notable for autoimmune disorders"
          }
        ],
        "entry": [
          {
            "item": {
              "reference": "#fmh-1"
            }
          }
        ]
      },
      "request": {
        "method": "POST",
        "url": "FamilyMemberHistory"
      }
    }
  ]
}