{
  "resourceType": "Bundle",
  "type": "transaction",
  "entry": [
    {
      "fullUrl": "urn:uuid:a74565ff-e82f-4581-b74e-57de135a85a1",
      "resource": {
        "resourceType": "Patient",
        "id": "a74565ff-e82f-4581-b74e-57de135a85a1",
        "name": [
          {
            "family": "Markova",
            "given": [
              "Mila"
            ]
          }
        ],
        "gender": "female",
        "birthDate": "1997-07-04",
        "address": [
          {}
        ]
      },
      "request": {
        "method": "POST",
        "url": "Patient"
      }
    },
    {
      "fullUrl": "urn:uuid:6ea03e59-49a2-441d-9df2-1854150a5b1a",
      "resource": {
        "resourceType": "Encounter",
        "id": "6ea03e59-49a2-441d-9df2-1854150a5b1a",
        "identifier": [
          {
            "use": "temp",
            "value": "Encounter_Mila Markova_20251022152120"
          }
        ],
        "status": "completed",
        "priority": {
          "coding": [
            {
              "system": "http://snomed.info/sct",
              "code": "17621005",
              "display": "Normal"
            }
          ]
        },
        "type": [
          {
            "coding": [
              {
                "system": "http://snomed.info/sct",
                "code": "11429006",
                "display": "Consultation"
              }
            ]
          }
        ],
        "subject": {
          "reference": "Patient/a74565ff-e82f-4581-b74e-57de135a85a1",
          "display": "Mila Markova"
        },
        "reason": [
          {
            "value": [
              {
                "concept": {
                  "text": "persistent low-grade fever, muscle aches, and unintentional weight loss over the past three months"
                }
              }
            ]
          }
        ]
      },
      "request": {
        "method": "POST",
        "url": "Encounter"
      }
    },
    {
      "fullUrl": "urn:uuid:bb5f8525-8465-49d2-94e5-6794d1d2250d",
      "resource": {
        "resourceType": "Observation",
        "id": "bb5f8525-8465-49d2-94e5-6794d1d2250d",
        "status": "final",
        "category": [
          {
            "coding": [
              {
                "system": "http://terminology.hl7.org/CodeSystem/observation-category",
                "code": "laboratory",
                "display": "Laboratory"
              }
            ],
            "text": "Laboratory"
          }
        ],
        "code": {
          "coding": [
            {
              "system": "http://loinc.org",
              "code": "unknown",
              "display": "Erythrocyte Sedimentation Rate (ESR)"
            }
          ],
          "text": "Erythrocyte Sedimentation Rate (ESR)"
        },
        "subject": {
          "reference": "Patient/a74565ff-e82f-4581-b74e-57de135a85a1"
        },
        "encounter": {
          "reference": "Encounter/6ea03e59-49a2-441d-9df2-1854150a5b1a"
        },
        "effectiveDateTime": "2025-10-16",
        "interpretation": [
          {
            "coding": [
              {
                "system": "http://terminology.hl7.org/CodeSystem/v3-ObservationInterpretation",
                "code": "H",
                "display": "High"
              }
            ]
          }
        ]
      },
      "request": {
        "method": "POST",
        "url": "Observation"
      }
    },
    {
      "fullUrl": "urn:uuid:a92605e2-08aa-4877-9614-c691adc00f75",
      "resource": {
        "resourceType": "Observation",
        "id": "a92605e2-08aa-4877-9614-c691adc00f75",
        "status": "final",
        "category": [
          {
            "coding": [
              {
                "system": "http://terminology.hl7.org/CodeSystem/observation-category",
                "code": "laboratory",
                "display": "Laboratory"
              }
            ],
            "text": "Laboratory"
          }
        ],
        "code": {
          "coding": [
            {
              "system": "http://loinc.org",
              "code": "35648-5",
              "display": "CRP Quint SerPl Qn HS"
            }
          ],
          "text": "C-Reactive Protein (CRP)"
        },
        "subject": {
          "reference": "Patient/a74565ff-e82f-4581-b74e-57de135a85a1"
        },
        "encounter": {
          "reference": "Encounter/6ea03e59-49a2-441d-9df2-1854150a5b1a"
        },
        "effectiveDateTime": "2025-10-16",
        "interpretation": [
          {
            "coding": [
              {
                "system": "http://terminology.hl7.org/CodeSystem/v3-ObservationInterpretation",
                "code": "H",
                "display": "High"
              }
            ]
          }
        ],
        "note": [
          {
            "text": "Definition: https://loinc.org/35648-5/"
          }
        ]
      },
      "request": {
        "method": "POST",
        "url": "Observation"
      }
    },
    {
      "fullUrl": "urn:uuid:9af15b4a-256d-4901-81c0-a3fcc27ce3e1",
      "resource": {
        "resourceType": "Observation",
        "id": "9af15b4a-256d-4901-81c0-a3fcc27ce3e1",
        "status": "final",
        "category": [
          {
            "coding": [
              {
                "system": "http://terminology.hl7.org/CodeSystem/observation-category",
                "code": "laboratory",
                "display": "Laboratory"
              }
            ],
            "text": "Laboratory"
          }
        ],
        "code": {
          "coding": [
            {
              "system": "http://loinc.org",
              "code": "unknown",
              "display": "Antinuclear Antibody (ANA) Test"
            }
          ],
          "text": "Antinuclear Antibody (ANA) Test"
        },
        "subject": {
          "reference": "Patient/a74565ff-e82f-4581-b74e-57de135a85a1"
        },
        "encounter": {
          "reference": "Encounter/6ea03e59-49a2-441d-9df2-1854150a5b1a"
        },
        "effectiveDateTime": "2025-10-16"
      },
      "request": {
        "method": "POST",
        "url": "Observation"
      }
    },
    {
      "fullUrl": "urn:uuid:792ba9ea-e881-4faa-bca0-65e579a214b9",
      "resource": {
        "resourceType": "Observation",
        "id": "792ba9ea-e881-4faa-bca0-65e579a214b9",
        "status": "final",
        "category": [
          {
            "coding": [
              {
                "system": "http://terminology.hl7.org/CodeSystem/observation-category",
                "code": "laboratory",
                "display": "Laboratory"
              }
            ],
            "text": "Laboratory"
          }
        ],
        "code": {
          "coding": [
            {
              "system": "http://loinc.org",
              "code": "111462-8",
              "display": "dsDNA Ab Msmt Ser"
            }
          ],
          "text": "Anti-dsDNA"
        },
        "subject": {
          "reference": "Patient/a74565ff-e82f-4581-b74e-57de135a85a1"
        },
        "encounter": {
          "reference": "Encounter/6ea03e59-49a2-441d-9df2-1854150a5b1a"
        },
        "effectiveDateTime": "2025-10-16",
        "note": [
          {
            "text": "Definition: https://loinc.org/111462-8/"
          }
        ]
      },
      "request": {
        "method": "POST",
        "url": "Observation"
      }
    },
    {
      "fullUrl": "urn:uuid:e97b4e61-de9b-4910-9552-faa895771664",
      "resource": {
        "resourceType": "Observation",
        "id": "e97b4e61-de9b-4910-9552-faa895771664",
        "status": "final",
        "category": [
          {
            "coding": [
              {
                "system": "http://terminology.hl7.org/CodeSystem/observation-category",
                "code": "exam",
                "display": "Exam"
              }
            ],
            "text": "Exam"
          }
        ],
        "code": {
          "coding": [
            {
              "system": "http://snomed.info/sct",
              "code": "369766003",
              "display": "Low grade (lymphoma)"
            }
          ],
          "text": "Low-grade fever"
        },
        "subject": {
          "reference": "Patient/a74565ff-e82f-4581-b74e-57de135a85a1"
        },
        "encounter": {
          "reference": "Encounter/6ea03e59-49a2-441d-9df2-1854150a5b1a"
        },
        "effectivePeriod": {
          "start": "2025-10-16"
        },
        "valueBoolean": true,
        "note": [
          {
            "text": "Definition: https://snomed.info/id/369766003"
          }
        ]
      },
      "request": {
        "method": "POST",
        "url": "Observation"
      }
    },
    {
      "fullUrl": "urn:uuid:f7aef031-bdec-42f6-9ba0-fdaca1cf22f7",
      "resource": {
        "resourceType": "Observation",
        "id": "f7aef031-bdec-42f6-9ba0-fdaca1cf22f7",
        "status": "final",
        "category": [
          {
            "coding": [
              {
                "system": "http://terminology.hl7.org/CodeSystem/observation-category",
                "code": "exam",
                "display": "Exam"
              }
            ],
            "text": "Exam"
          }
        ],
        "code": {
          "coding": [
            {
              "system": "http://snomed.info/sct",
              "code": "82991003",
              "display": "Generalized aches and pains"
            }
          ],
          "text": "Muscle aches"
        },
        "subject": {
          "reference": "Patient/a74565ff-e82f-4581-b74e-57de135a85a1"
        },
        "encounter": {
          "reference": "Encounter/6ea03e59-49a2-441d-9df2-1854150a5b1a"
        },
        "effectivePeriod": {
          "start": "2025-10-16"
        },
        "valueBoolean": true,
        "note": [
          {
            "text": "Definition: https://snomed.info/id/82991003"
          }
        ]
      },
      "request": {
        "method": "POST",
        "url": "Observation"
      }
    },
    {
      "fullUrl": "urn:uuid:4f33b26d-75d8-47c4-a536-efe91e0e2e63",
      "resource": {
        "resourceType": "Observation",
        "id": "4f33b26d-75d8-47c4-a536-efe91e0e2e63",
        "status": "final",
        "category": [
          {
            "coding": [
              {
                "system": "http://terminology.hl7.org/CodeSystem/observation-category",
                "code": "exam",
                "display": "Exam"
              }
            ],
            "text": "Exam"
          }
        ],
        "code": {
          "coding": [
            {
              "system": "http://snomed.info/sct",
              "code": "448765001",
              "display": "Unintentional weight loss"
            }
          ],
          "text": "Unintentional weight loss"
        },
        "subject": {
          "reference": "Patient/a74565ff-e82f-4581-b74e-57de135a85a1"
        },
        "encounter": {
          "reference": "Encounter/6ea03e59-49a2-441d-9df2-1854150a5b1a"
        },
        "effectivePeriod": {
          "start": "2025-10-16"
        },
        "valueBoolean": true,
        "note": [
          {
            "text": "Definition: https://snomed.info/id/448765001"
          }
        ]
      },
      "request": {
        "method": "POST",
        "url": "Observation"
      }
    },
    {
      "fullUrl": "urn:uuid:bbe0d1f6-2244-4ce0-8639-8cd831cab6ef",
      "resource": {
        "resourceType": "Observation",
        "id": "bbe0d1f6-2244-4ce0-8639-8cd831cab6ef",
        "status": "final",
        "category": [
          {
            "coding": [
              {
                "system": "http://terminology.hl7.org/CodeSystem/observation-category",
                "code": "exam",
                "display": "Exam"
              }
            ],
            "text": "Exam"
          }
        ],
        "code": {
          "coding": [
            {
              "system": "http://snomed.info/sct",
              "code": "125318001",
              "display": "Multiple ulcers"
            }
          ],
          "text": "Mouth ulcers"
        },
        "subject": {
          "reference": "Patient/a74565ff-e82f-4581-b74e-57de135a85a1"
        },
        "encounter": {
          "reference": "Encounter/6ea03e59-49a2-441d-9df2-1854150a5b1a"
        },
        "effectivePeriod": {
          "start": "2025-10-16"
        },
        "valueBoolean": true,
        "note": [
          {
            "text": "Definition: https://snomed.info/id/125318001"
          }
        ]
      },
      "request": {
        "method": "POST",
        "url": "Observation"
      }
    },
    {
      "fullUrl": "urn:uuid:2ec6e0b7-4701-49fb-b34a-6e66ee901ca1",
      "resource": {
        "resourceType": "Observation",
        "id": "2ec6e0b7-4701-49fb-b34a-6e66ee901ca1",
        "status": "final",
        "category": [
          {
            "coding": [
              {
                "system": "http://terminology.hl7.org/CodeSystem/observation-category",
                "code": "exam",
                "display": "Exam"
              }
            ],
            "text": "Exam"
          }
        ],
        "code": {
          "coding": [
            {
              "system": "http://snomed.info/sct",
              "code": "827160004",
              "display": "Erythematous rash"
            }
          ],
          "text": "Erythematous rash"
        },
        "subject": {
          "reference": "Patient/a74565ff-e82f-4581-b74e-57de135a85a1"
        },
        "encounter": {
          "reference": "Encounter/6ea03e59-49a2-441d-9df2-1854150a5b1a"
        },
        "effectivePeriod": {
          "start": "2025-10-16"
        },
        "valueBoolean": true,
        "note": [
          {
            "text": "Definition: https://snomed.info/id/827160004"
          }
        ]
      },
      "request": {
        "method": "POST",
        "url": "Observation"
      }
    },
    {
      "fullUrl": "urn:uuid:c0372a3d-499e-4b11-8e7b-2a9425b5791e",
      "resource": {
        "resourceType": "Observation",
        "id": "c0372a3d-499e-4b11-8e7b-2a9425b5791e",
        "status": "final",
        "category": [
          {
            "coding": [
              {
                "system": "http://terminology.hl7.org/CodeSystem/observation-category",
                "code": "vital-signs",
                "display": "Vital Signs"
              }
            ],
            "text": "Vital Signs"
          }
        ],
        "code": {
          "coding": [
            {
              "system": "http://loinc.org",
              "code": "8310-5",
              "display": "Body temperature"
            }
          ],
          "text": "Body Temperature"
        },
        "subject": {
          "reference": "Patient/a74565ff-e82f-4581-b74e-57de135a85a1"
        },
        "encounter": {
          "reference": "Encounter/6ea03e59-49a2-441d-9df2-1854150a5b1a"
        },
        "effectiveDateTime": "2025-10-16",
        "valueQuantity": {
          "value": 38.0,
          "unit": "degrees C",
          "system": "http://unitsofmeasure.org",
          "code": "degrees C"
        },
        "interpretation": [
          {
            "coding": [
              {
                "system": "http://terminology.hl7.org/CodeSystem/v3-ObservationInterpretation",
                "code": "H",
                "display": "High"
              }
            ],
            "text": "High"
          }
        ]
      },
      "request": {
        "method": "POST",
        "url": "Observation"
      }
    },
    {
      "fullUrl": "urn:uuid:251c18d4-ec49-4eb0-b974-5c4630cbd07c",
      "resource": {
        "resourceType": "List",
        "id": "251c18d4-ec49-4eb0-b974-5c4630cbd07c",
        "contained": [
          {
            "resourceType": "FamilyMemberHistory",
            "id": "fmh-1",
            "status": "completed",
            "patient": {
              "reference": "Patient/a74565ff-e82f-4581-b74e-57de135a85a1"
            },
            "relationship": {
              "coding": [
                {
                  "system": "http://snomed.info/sct",
                  "code": "736454006",
                  "display": "Maternal aunt"
                }
              ]
            },
            "deceasedBoolean": false,
            "condition": [
              {
                "code": {
                  "coding": [
                    {
                      "system": "http://snomed.info/sct",
                      "code": "200936003",
                      "display": "Lupus erythematosus"
                    }
                  ]
                }
              }
            ]
          }
        ],
        "status": "current",
        "mode": "snapshot",
        "code": {
          "coding": [
            {
              "system": "http://loinc.org",
              "code": "8670-2",
              "display": "History of family member diseases"
            }
          ]
        },
        "subject": [
          {
            "reference": "Patient/a74565ff-e82f-4581-b74e-57de135a85a1"
          }
        ],
        "note": [
          {
            "text": "Notable for autoimmune disorders"
          }
        ],
        "entry": [
          {
            "item": {
              "reference": "#fmh-1"
            }
          }
        ]
      },
      "request": {
        "method": "POST",
        "url": "FamilyMemberHistory"
      }
    }
  ]
}