{
  "resourceType": "Bundle",
  "type": "transaction",
  "entry": [
    {
      "fullUrl": "urn:uuid:b93382a8-f19e-460a-b2af-86c8958084c3",
      "resource": {
        "resourceType": "Patient",
        "id": "b93382a8-f19e-460a-b2af-86c8958084c3",
        "name": [
          {
            "family": "L.",
            "given": [
              "Mateo"
            ]
          }
        ],
        "gender": "male",
        "address": [
          {}
        ]
      },
      "request": {
        "method": "POST",
        "url": "Patient"
      }
    },
    {
      "fullUrl": "urn:uuid:531bb53b-aa0d-4268-b1c2-f00b9f145486",
      "resource": {
        "resourceType": "Encounter",
        "id": "531bb53b-aa0d-4268-b1c2-f00b9f145486",
        "identifier": [
          {
            "use": "temp",
            "value": "Encounter_Mateo L._20251017122124"
          }
        ],
        "status": "completed",
        "priority": {
          "coding": [
            {
              "system": "http://snomed.info/sct",
              "code": "17621005",
              "display": "Normal"
            }
          ]
        },
        "type": [
          {
            "coding": [
              {
                "system": "http://snomed.info/sct",
                "code": "11429006",
                "display": "Consultation"
              }
            ]
          }
        ],
        "subject": {
          "reference": "Patient/b93382a8-f19e-460a-b2af-86c8958084c3",
          "display": "Mateo L."
        },
        "reason": [
          {
            "value": [
              {
                "concept": {
                  "text": "marked short stature"
                }
              }
            ]
          }
        ]
      },
      "request": {
        "method": "POST",
        "url": "Encounter"
      }
    },
    {
      "fullUrl": "urn:uuid:6ba6e8cb-24a8-4f78-8828-6eb16db77c16",
      "resource": {
        "resourceType": "Observation",
        "id": "6ba6e8cb-24a8-4f78-8828-6eb16db77c16",
        "status": "final",
        "category": [
          {
            "coding": [
              {
                "system": "http://terminology.hl7.org/CodeSystem/observation-category",
                "code": "laboratory",
                "display": "Laboratory"
              }
            ],
            "text": "Laboratory"
          }
        ],
        "code": {
          "coding": [
            {
              "system": "http://loinc.org",
              "code": "101310-1",
              "display": "Somatotropin post insulin stimulation panel"
            }
          ],
          "text": "GH stimulation test"
        },
        "subject": {
          "reference": "Patient/b93382a8-f19e-460a-b2af-86c8958084c3"
        },
        "encounter": {
          "reference": "Encounter/531bb53b-aa0d-4268-b1c2-f00b9f145486"
        },
        "effectiveDateTime": "2025-10-17T10:21:24.329338Z",
        "interpretation": [
          {
            "coding": [
              {
                "system": "http://terminology.hl7.org/CodeSystem/v3-ObservationInterpretation",
                "code": "N",
                "display": "Normal"
              }
            ]
          }
        ],
        "note": [
          {
            "text": "Definition: https://loinc.org/101310-1/"
          }
        ]
      },
      "request": {
        "method": "POST",
        "url": "Observation"
      }
    },
    {
      "fullUrl": "urn:uuid:1f742c09-7dc5-467e-a359-1d18c53d0f1c",
      "resource": {
        "resourceType": "Observation",
        "id": "1f742c09-7dc5-467e-a359-1d18c53d0f1c",
        "status": "final",
        "category": [
          {
            "coding": [
              {
                "system": "http://terminology.hl7.org/CodeSystem/observation-category",
                "code": "laboratory",
                "display": "Laboratory"
              }
            ],
            "text": "Laboratory"
          }
        ],
        "code": {
          "coding": [
            {
              "system": "http://loinc.org",
              "code": "49850-1",
              "display": "IGF-I BS SerPl-mCnc"
            }
          ],
          "text": "Serum IGF-1"
        },
        "subject": {
          "reference": "Patient/b93382a8-f19e-460a-b2af-86c8958084c3"
        },
        "encounter": {
          "reference": "Encounter/531bb53b-aa0d-4268-b1c2-f00b9f145486"
        },
        "effectiveDateTime": "2025-10-17T10:21:24.534536Z",
        "interpretation": [
          {
            "coding": [
              {
                "system": "http://terminology.hl7.org/CodeSystem/v3-ObservationInterpretation",
                "code": "L",
                "display": "Low"
              }
            ]
          }
        ],
        "note": [
          {
            "text": "Definition: https://loinc.org/49850-1/"
          }
        ]
      },
      "request": {
        "method": "POST",
        "url": "Observation"
      }
    },
    {
      "fullUrl": "urn:uuid:0423065b-05a6-44b2-9a09-5104f98376b2",
      "resource": {
        "resourceType": "Observation",
        "id": "0423065b-05a6-44b2-9a09-5104f98376b2",
        "status": "final",
        "category": [
          {
            "coding": [
              {
                "system": "http://terminology.hl7.org/CodeSystem/observation-category",
                "code": "exam",
                "display": "Exam"
              }
            ],
            "text": "Exam"
          }
        ],
        "code": {
          "coding": [
            {
              "system": "http://snomed.info/sct",
              "code": "772086000",
              "display": "Disproportionate short stature"
            }
          ],
          "text": "Short stature"
        },
        "subject": {
          "reference": "Patient/b93382a8-f19e-460a-b2af-86c8958084c3"
        },
        "encounter": {
          "reference": "Encounter/531bb53b-aa0d-4268-b1c2-f00b9f145486"
        },
        "effectivePeriod": {
          "start": "2025-10-17T10:21:26.030983Z"
        },
        "valueBoolean": true,
        "interpretation": [
          {
            "coding": [
              {
                "system": "http://terminology.hl7.org/CodeSystem/v3-ObservationInterpretation",
                "code": "A",
                "display": "Abnormal"
              }
            ],
            "text": "Abnormal"
          }
        ],
        "note": [
          {
            "text": "Definition: https://snomed.info/id/772086000"
          }
        ]
      },
      "request": {
        "method": "POST",
        "url": "Observation"
      }
    },
    {
      "fullUrl": "urn:uuid:6a18466f-a087-4d15-a635-d3c482cb4bd0",
      "resource": {
        "resourceType": "Observation",
        "id": "6a18466f-a087-4d15-a635-d3c482cb4bd0",
        "status": "final",
        "category": [
          {
            "coding": [
              {
                "system": "http://terminology.hl7.org/CodeSystem/observation-category",
                "code": "exam",
                "display": "Exam"
              }
            ],
            "text": "Exam"
          }
        ],
        "code": {
          "coding": [
            {
              "system": "http://snomed.info/sct",
              "code": "255604002",
              "display": "Mild"
            }
          ],
          "text": "Mild facial hypoplasia"
        },
        "subject": {
          "reference": "Patient/b93382a8-f19e-460a-b2af-86c8958084c3"
        },
        "encounter": {
          "reference": "Encounter/531bb53b-aa0d-4268-b1c2-f00b9f145486"
        },
        "effectivePeriod": {
          "start": "2025-10-17T10:21:27.646703Z"
        },
        "valueBoolean": true,
        "note": [
          {
            "text": "Definition: https://snomed.info/id/255604002"
          }
        ]
      },
      "request": {
        "method": "POST",
        "url": "Observation"
      }
    },
    {
      "fullUrl": "urn:uuid:71fd1abd-ba15-49a8-b2cc-51b06a0b5ca5",
      "resource": {
        "resourceType": "Observation",
        "id": "71fd1abd-ba15-49a8-b2cc-51b06a0b5ca5",
        "status": "final",
        "category": [
          {
            "coding": [
              {
                "system": "http://terminology.hl7.org/CodeSystem/observation-category",
                "code": "exam",
                "display": "Exam"
              }
            ],
            "text": "Exam"
          }
        ],
        "code": {
          "coding": [
            {
              "system": "http://snomed.info/sct",
              "code": "51406002",
              "display": "High pitched voice"
            }
          ],
          "text": "High-pitched voice"
        },
        "subject": {
          "reference": "Patient/b93382a8-f19e-460a-b2af-86c8958084c3"
        },
        "encounter": {
          "reference": "Encounter/531bb53b-aa0d-4268-b1c2-f00b9f145486"
        },
        "effectivePeriod": {
          "start": "2025-10-17T10:21:29.268908Z"
        },
        "valueBoolean": true,
        "note": [
          {
            "text": "Definition: https://snomed.info/id/51406002"
          }
        ]
      },
      "request": {
        "method": "POST",
        "url": "Observation"
      }
    },
    {
      "fullUrl": "urn:uuid:03f40d90-20c3-4a2b-8f7e-d3b69e1f7468",
      "resource": {
        "resourceType": "Observation",
        "id": "03f40d90-20c3-4a2b-8f7e-d3b69e1f7468",
        "status": "final",
        "category": [
          {
            "coding": [
              {
                "system": "http://terminology.hl7.org/CodeSystem/observation-category",
                "code": "vital-signs",
                "display": "Vital Signs"
              }
            ],
            "text": "Vital Signs"
          }
        ],
        "code": {
          "coding": [
            {
              "system": "http://loinc.org",
              "code": "92998-4",
              "display": "Lower segment"
            }
          ],
          "text": "height"
        },
        "subject": {
          "reference": "Patient/b93382a8-f19e-460a-b2af-86c8958084c3"
        },
        "encounter": {
          "reference": "Encounter/531bb53b-aa0d-4268-b1c2-f00b9f145486"
        },
        "effectiveDateTime": "2025-10-17T10:21:29.449951Z",
        "interpretation": [
          {
            "coding": [
              {
                "system": "http://terminology.hl7.org/CodeSystem/v3-ObservationInterpretation",
                "code": "L",
                "display": "Low"
              }
            ],
            "text": "Low"
          }
        ]
      },
      "request": {
        "method": "POST",
        "url": "Observation"
      }
    },
    {
      "fullUrl": "urn:uuid:06a849b4-a8c7-422e-907e-c96ca0b85b2d",
      "resource": {
        "resourceType": "Observation",
        "id": "06a849b4-a8c7-422e-907e-c96ca0b85b2d",
        "status": "final",
        "category": [
          {
            "coding": [
              {
                "system": "http://terminology.hl7.org/CodeSystem/observation-category",
                "code": "vital-signs",
                "display": "Vital Signs"
              }
            ],
            "text": "Vital Signs"
          }
        ],
        "code": {
          "coding": [
            {
              "system": "http://loinc.org",
              "code": "82795-6",
              "display": "Clot growth Mean PPP Qn"
            }
          ],
          "text": "growth velocity"
        },
        "subject": {
          "reference": "Patient/b93382a8-f19e-460a-b2af-86c8958084c3"
        },
        "encounter": {
          "reference": "Encounter/531bb53b-aa0d-4268-b1c2-f00b9f145486"
        },
        "effectiveDateTime": "2025-10-17T10:21:29.655009Z",
        "interpretation": [
          {
            "coding": [
              {
                "system": "http://terminology.hl7.org/CodeSystem/v3-ObservationInterpretation",
                "code": "L",
                "display": "Low"
              }
            ],
            "text": "Low"
          }
        ]
      },
      "request": {
        "method": "POST",
        "url": "Observation"
      }
    }
  ]
}