{
  "resourceType": "Bundle",
  "type": "transaction",
  "entry": [
    {
      "fullUrl": "urn:uuid:8c1293f9-46c9-4c82-ba2a-59998bd7fa8d",
      "resource": {
        "resourceType": "Patient",
        "id": "8c1293f9-46c9-4c82-ba2a-59998bd7fa8d",
        "name": [
          {
            "family": "P.",
            "given": [
              "Luka"
            ]
          }
        ],
        "gender": "male",
        "address": [
          {}
        ]
      },
      "request": {
        "method": "POST",
        "url": "Patient"
      }
    },
    {
      "fullUrl": "urn:uuid:5f78ffda-4693-4b77-8c27-48867d171d92",
      "resource": {
        "resourceType": "Encounter",
        "id": "5f78ffda-4693-4b77-8c27-48867d171d92",
        "identifier": [
          {
            "use": "temp",
            "value": "Encounter_Luka P._20251017122132"
          }
        ],
        "status": "completed",
        "priority": {
          "coding": [
            {
              "system": "http://snomed.info/sct",
              "code": "17621005",
              "display": "Normal"
            }
          ]
        },
        "type": [
          {
            "coding": [
              {
                "system": "http://snomed.info/sct",
                "code": "11429006",
                "display": "Consultation"
              }
            ]
          }
        ],
        "subject": {
          "reference": "Patient/8c1293f9-46c9-4c82-ba2a-59998bd7fa8d",
          "display": "Luka P."
        },
        "reason": [
          {
            "value": [
              {
                "concept": {
                  "text": "poor growth despite normal appetite and nutrition"
                }
              }
            ]
          }
        ]
      },
      "request": {
        "method": "POST",
        "url": "Encounter"
      }
    },
    {
      "fullUrl": "urn:uuid:ecf967d1-4fee-4f52-b1da-c6c922f10cee",
      "resource": {
        "resourceType": "Observation",
        "id": "ecf967d1-4fee-4f52-b1da-c6c922f10cee",
        "status": "final",
        "category": [
          {
            "coding": [
              {
                "system": "http://terminology.hl7.org/CodeSystem/observation-category",
                "code": "laboratory",
                "display": "Laboratory"
              }
            ],
            "text": "Laboratory"
          }
        ],
        "code": {
          "coding": [
            {
              "system": "http://loinc.org",
              "code": "42788-0",
              "display": "IGF-IR Ag Tiss Ql ImStn"
            }
          ],
          "text": "IGF-1"
        },
        "subject": {
          "reference": "Patient/8c1293f9-46c9-4c82-ba2a-59998bd7fa8d"
        },
        "encounter": {
          "reference": "Encounter/5f78ffda-4693-4b77-8c27-48867d171d92"
        },
        "effectiveDateTime": "2025-10-17T10:21:32.420174Z",
        "valueQuantity": {
          "value": 0.0,
          "unit": "ng/mL",
          "system": "http://unitsofmeasure.org",
          "code": "ng/mL"
        },
        "interpretation": [
          {
            "coding": [
              {
                "system": "http://terminology.hl7.org/CodeSystem/v3-ObservationInterpretation",
                "code": "L",
                "display": "Low"
              }
            ]
          }
        ],
        "note": [
          {
            "text": "Definition: https://loinc.org/42788-0/"
          }
        ]
      },
      "request": {
        "method": "POST",
        "url": "Observation"
      }
    },
    {
      "fullUrl": "urn:uuid:8b82c7ef-5bc8-43ab-9705-4ef2450ab13e",
      "resource": {
        "resourceType": "Observation",
        "id": "8b82c7ef-5bc8-43ab-9705-4ef2450ab13e",
        "status": "final",
        "category": [
          {
            "coding": [
              {
                "system": "http://terminology.hl7.org/CodeSystem/observation-category",
                "code": "laboratory",
                "display": "Laboratory"
              }
            ],
            "text": "Laboratory"
          }
        ],
        "code": {
          "coding": [
            {
              "system": "http://loinc.org",
              "code": "71977-3",
              "display": "VR 36 GH, raw score, oblique method"
            }
          ],
          "text": "GH"
        },
        "subject": {
          "reference": "Patient/8c1293f9-46c9-4c82-ba2a-59998bd7fa8d"
        },
        "encounter": {
          "reference": "Encounter/5f78ffda-4693-4b77-8c27-48867d171d92"
        },
        "effectiveDateTime": "2025-10-17T10:21:32.625173Z",
        "interpretation": [
          {
            "coding": [
              {
                "system": "http://terminology.hl7.org/CodeSystem/v3-ObservationInterpretation",
                "code": "N",
                "display": "Normal"
              }
            ]
          }
        ],
        "note": [
          {
            "text": "Definition: https://loinc.org/71977-3/"
          }
        ]
      },
      "request": {
        "method": "POST",
        "url": "Observation"
      }
    },
    {
      "fullUrl": "urn:uuid:f381d2f3-985a-4fee-a594-d2222e46875c",
      "resource": {
        "resourceType": "Observation",
        "id": "f381d2f3-985a-4fee-a594-d2222e46875c",
        "status": "final",
        "category": [
          {
            "coding": [
              {
                "system": "http://terminology.hl7.org/CodeSystem/observation-category",
                "code": "laboratory",
                "display": "Laboratory"
              }
            ],
            "text": "Laboratory"
          }
        ],
        "code": {
          "coding": [
            {
              "system": "http://loinc.org",
              "code": "54799-2",
              "display": "Thyroid Disorder"
            }
          ],
          "text": "Thyroid"
        },
        "subject": {
          "reference": "Patient/8c1293f9-46c9-4c82-ba2a-59998bd7fa8d"
        },
        "encounter": {
          "reference": "Encounter/5f78ffda-4693-4b77-8c27-48867d171d92"
        },
        "effectiveDateTime": "2025-10-17T10:21:32.751759Z",
        "interpretation": [
          {
            "coding": [
              {
                "system": "http://terminology.hl7.org/CodeSystem/v3-ObservationInterpretation",
                "code": "N",
                "display": "Normal"
              }
            ]
          }
        ],
        "note": [
          {
            "text": "Definition: https://loinc.org/54799-2/"
          }
        ]
      },
      "request": {
        "method": "POST",
        "url": "Observation"
      }
    },
    {
      "fullUrl": "urn:uuid:dcd49404-1a24-4890-91b5-e691962b681b",
      "resource": {
        "resourceType": "Observation",
        "id": "dcd49404-1a24-4890-91b5-e691962b681b",
        "status": "final",
        "category": [
          {
            "coding": [
              {
                "system": "http://terminology.hl7.org/CodeSystem/observation-category",
                "code": "laboratory",
                "display": "Laboratory"
              }
            ],
            "text": "Laboratory"
          }
        ],
        "code": {
          "coding": [
            {
              "system": "http://loinc.org",
              "code": "68315-1",
              "display": "Transcortin & Cortisol.free panel"
            }
          ],
          "text": "Cortisol"
        },
        "subject": {
          "reference": "Patient/8c1293f9-46c9-4c82-ba2a-59998bd7fa8d"
        },
        "encounter": {
          "reference": "Encounter/5f78ffda-4693-4b77-8c27-48867d171d92"
        },
        "effectiveDateTime": "2025-10-17T10:21:32.877297Z",
        "interpretation": [
          {
            "coding": [
              {
                "system": "http://terminology.hl7.org/CodeSystem/v3-ObservationInterpretation",
                "code": "N",
                "display": "Normal"
              }
            ]
          }
        ],
        "note": [
          {
            "text": "Definition: https://loinc.org/68315-1/"
          }
        ]
      },
      "request": {
        "method": "POST",
        "url": "Observation"
      }
    },
    {
      "fullUrl": "urn:uuid:3d25c68b-fe07-4e73-a3c4-96aa81b1af61",
      "resource": {
        "resourceType": "Observation",
        "id": "3d25c68b-fe07-4e73-a3c4-96aa81b1af61",
        "status": "final",
        "category": [
          {
            "coding": [
              {
                "system": "http://terminology.hl7.org/CodeSystem/observation-category",
                "code": "exam",
                "display": "Exam"
              }
            ],
            "text": "Exam"
          }
        ],
        "code": {
          "coding": [
            {
              "system": "http://snomed.info/sct",
              "code": "247525002",
              "display": "Poor hair growth"
            }
          ],
          "text": "Poor growth"
        },
        "subject": {
          "reference": "Patient/8c1293f9-46c9-4c82-ba2a-59998bd7fa8d"
        },
        "encounter": {
          "reference": "Encounter/5f78ffda-4693-4b77-8c27-48867d171d92"
        },
        "effectivePeriod": {
          "start": "2025-10-17T10:21:34.464153Z"
        },
        "valueBoolean": true,
        "interpretation": [
          {
            "coding": [
              {
                "system": "http://terminology.hl7.org/CodeSystem/v3-ObservationInterpretation",
                "code": "A",
                "display": "Abnormal"
              }
            ],
            "text": "Abnormal"
          }
        ],
        "note": [
          {
            "text": "Definition: https://snomed.info/id/247525002"
          }
        ]
      },
      "request": {
        "method": "POST",
        "url": "Observation"
      }
    },
    {
      "fullUrl": "urn:uuid:5cf18f21-3206-453b-97b6-f39548def6ef",
      "resource": {
        "resourceType": "Observation",
        "id": "5cf18f21-3206-453b-97b6-f39548def6ef",
        "status": "final",
        "category": [
          {
            "coding": [
              {
                "system": "http://terminology.hl7.org/CodeSystem/observation-category",
                "code": "vital-signs",
                "display": "Vital Signs"
              }
            ],
            "text": "Vital Signs"
          }
        ],
        "code": {
          "coding": [
            {
              "system": "http://loinc.org",
              "code": "92998-4",
              "display": "Lower segment"
            }
          ],
          "text": "Height"
        },
        "subject": {
          "reference": "Patient/8c1293f9-46c9-4c82-ba2a-59998bd7fa8d"
        },
        "encounter": {
          "reference": "Encounter/5f78ffda-4693-4b77-8c27-48867d171d92"
        },
        "effectiveDateTime": "2025-10-17T10:21:34.673675Z",
        "valueQuantity": {
          "value": -3.2,
          "unit": "SD",
          "system": "http://unitsofmeasure.org",
          "code": "SD"
        },
        "interpretation": [
          {
            "coding": [
              {
                "system": "http://terminology.hl7.org/CodeSystem/v3-ObservationInterpretation",
                "code": "L",
                "display": "Low"
              }
            ],
            "text": "Low"
          }
        ]
      },
      "request": {
        "method": "POST",
        "url": "Observation"
      }
    },
    {
      "fullUrl": "urn:uuid:1a77797c-2dc3-47e5-b680-0ac7fe9601a2",
      "resource": {
        "resourceType": "Observation",
        "id": "1a77797c-2dc3-47e5-b680-0ac7fe9601a2",
        "status": "final",
        "category": [
          {
            "coding": [
              {
                "system": "http://terminology.hl7.org/CodeSystem/observation-category",
                "code": "vital-signs",
                "display": "Vital Signs"
              }
            ],
            "text": "Vital Signs"
          }
        ],
        "code": {
          "coding": [
            {
              "system": "http://loinc.org",
              "code": "8337-8",
              "display": "Bdy weight special circumstances"
            }
          ],
          "text": "Weight"
        },
        "subject": {
          "reference": "Patient/8c1293f9-46c9-4c82-ba2a-59998bd7fa8d"
        },
        "encounter": {
          "reference": "Encounter/5f78ffda-4693-4b77-8c27-48867d171d92"
        },
        "effectiveDateTime": "2025-10-17T10:21:34.878970Z",
        "valueQuantity": {
          "value": -1.5,
          "unit": "SD",
          "system": "http://unitsofmeasure.org",
          "code": "SD"
        },
        "interpretation": [
          {
            "coding": [
              {
                "system": "http://terminology.hl7.org/CodeSystem/v3-ObservationInterpretation",
                "code": "L",
                "display": "Low"
              }
            ],
            "text": "Low"
          }
        ]
      },
      "request": {
        "method": "POST",
        "url": "Observation"
      }
    },
    {
      "fullUrl": "urn:uuid:45456c6b-b632-44a6-bbfc-00365e8487c7",
      "resource": {
        "resourceType": "Observation",
        "id": "45456c6b-b632-44a6-bbfc-00365e8487c7",
        "status": "final",
        "category": [
          {
            "coding": [
              {
                "system": "http://terminology.hl7.org/CodeSystem/observation-category",
                "code": "vital-signs",
                "display": "Vital Signs"
              }
            ],
            "text": "Vital Signs"
          }
        ],
        "code": {
          "coding": [
            {
              "system": "http://loinc.org",
              "code": "107102-6",
              "display": "BMI formula"
            }
          ],
          "text": "BMI"
        },
        "subject": {
          "reference": "Patient/8c1293f9-46c9-4c82-ba2a-59998bd7fa8d"
        },
        "encounter": {
          "reference": "Encounter/5f78ffda-4693-4b77-8c27-48867d171d92"
        },
        "effectiveDateTime": "2025-10-17T10:21:35.082970Z",
        "valueQuantity": {
          "value": 16.8,
          "unit": "kg/m²",
          "system": "http://unitsofmeasure.org",
          "code": "kg/m²"
        },
        "interpretation": [
          {
            "coding": [
              {
                "system": "http://terminology.hl7.org/CodeSystem/v3-ObservationInterpretation",
                "code": "L",
                "display": "Low"
              }
            ],
            "text": "Low"
          }
        ]
      },
      "request": {
        "method": "POST",
        "url": "Observation"
      }
    },
    {
      "fullUrl": "urn:uuid:cacbf1d6-b82f-4ff5-a19d-3ddc63e3b415",
      "resource": {
        "resourceType": "List",
        "id": "cacbf1d6-b82f-4ff5-a19d-3ddc63e3b415",
        "contained": [
          {
            "resourceType": "FamilyMemberHistory",
            "id": "fmh-1",
            "status": "completed",
            "patient": {
              "reference": "Patient/8c1293f9-46c9-4c82-ba2a-59998bd7fa8d"
            },
            "relationship": {
              "coding": [
                {
                  "system": "http://snomed.info/sct",
                  "code": "442041000124107",
                  "display": "Paternal uncle"
                }
              ]
            },
            "deceasedBoolean": false,
            "condition": [
              {
                "code": {
                  "coding": [
                    {
                      "system": "http://snomed.info/sct",
                      "code": "772086000",
                      "display": "Disproportionate short stature"
                    }
                  ]
                }
              }
            ]
          }
        ],
        "status": "current",
        "mode": "snapshot",
        "code": {
          "coding": [
            {
              "system": "http://loinc.org",
              "code": "8670-2",
              "display": "History of family member diseases"
            }
          ]
        },
        "subject": [
          {
            "reference": "Patient/8c1293f9-46c9-4c82-ba2a-59998bd7fa8d"
          }
        ],
        "note": [
          {
            "text": "Consanguinity"
          }
        ],
        "entry": [
          {
            "item": {
              "reference": "#fmh-1"
            }
          }
        ]
      },
      "request": {
        "method": "POST",
        "url": "FamilyMemberHistory"
      }
    }
  ]
}