{
  "resourceType": "Bundle",
  "type": "transaction",
  "entry": [
    {
      "fullUrl": "urn:uuid:b8453431-d738-4de8-a6ba-9e033df73d40",
      "resource": {
        "resourceType": "Patient",
        "id": "b8453431-d738-4de8-a6ba-9e033df73d40",
        "name": [
          {
            "family": "Fedorov",
            "given": [
              "Dmitry"
            ]
          }
        ],
        "gender": "male",
        "birthDate": "2001-01-01",
        "address": [
          {}
        ]
      },
      "request": {
        "method": "POST",
        "url": "Patient"
      }
    },
    {
      "fullUrl": "urn:uuid:a6d5a24c-de15-4dc1-a9e7-dcdd515e65f8",
      "resource": {
        "resourceType": "Encounter",
        "id": "a6d5a24c-de15-4dc1-a9e7-dcdd515e65f8",
        "identifier": [
          {
            "use": "temp",
            "value": "Encounter_Dmitry Fedorov_20251020131628"
          }
        ],
        "status": "completed",
        "priority": {
          "coding": [
            {
              "system": "http://snomed.info/sct",
              "code": "17621005",
              "display": "Normal"
            }
          ]
        },
        "type": [
          {
            "coding": [
              {
                "system": "http://snomed.info/sct",
                "code": "11429006",
                "display": "Consultation"
              }
            ]
          }
        ],
        "subject": {
          "reference": "Patient/b8453431-d738-4de8-a6ba-9e033df73d40",
          "display": "Dmitry Fedorov"
        },
        "reason": [
          {
            "value": [
              {
                "concept": {
                  "text": "recent onset of recurrent fevers, headache, and myalgias, accompanied by an increasing joint pain in his knees"
                }
              }
            ]
          }
        ]
      },
      "request": {
        "method": "POST",
        "url": "Encounter"
      }
    },
    {
      "fullUrl": "urn:uuid:976d1ce5-0eb1-496e-bac1-a17e988bcc92",
      "resource": {
        "resourceType": "Observation",
        "id": "976d1ce5-0eb1-496e-bac1-a17e988bcc92",
        "status": "final",
        "category": [
          {
            "coding": [
              {
                "system": "http://terminology.hl7.org/CodeSystem/observation-category",
                "code": "laboratory",
                "display": "Laboratory"
              }
            ],
            "text": "Laboratory"
          }
        ],
        "code": {
          "coding": [
            {
              "system": "http://loinc.org",
              "code": "unknown",
              "display": "Erythrocyte Sedimentation Rate (ESR)"
            }
          ],
          "text": "Erythrocyte Sedimentation Rate (ESR)"
        },
        "subject": {
          "reference": "Patient/b8453431-d738-4de8-a6ba-9e033df73d40"
        },
        "encounter": {
          "reference": "Encounter/a6d5a24c-de15-4dc1-a9e7-dcdd515e65f8"
        },
        "effectiveDateTime": "2025-10-16",
        "interpretation": [
          {
            "coding": [
              {
                "system": "http://terminology.hl7.org/CodeSystem/v3-ObservationInterpretation",
                "code": "H",
                "display": "High"
              }
            ]
          }
        ]
      },
      "request": {
        "method": "POST",
        "url": "Observation"
      }
    },
    {
      "fullUrl": "urn:uuid:73de52fe-dd16-4617-a576-e23da1372a55",
      "resource": {
        "resourceType": "Observation",
        "id": "73de52fe-dd16-4617-a576-e23da1372a55",
        "status": "final",
        "category": [
          {
            "coding": [
              {
                "system": "http://terminology.hl7.org/CodeSystem/observation-category",
                "code": "laboratory",
                "display": "Laboratory"
              }
            ],
            "text": "Laboratory"
          }
        ],
        "code": {
          "coding": [
            {
              "system": "http://loinc.org",
              "code": "35648-5",
              "display": "CRP Quint SerPl Qn HS"
            }
          ],
          "text": "C-Reactive Protein (CRP)"
        },
        "subject": {
          "reference": "Patient/b8453431-d738-4de8-a6ba-9e033df73d40"
        },
        "encounter": {
          "reference": "Encounter/a6d5a24c-de15-4dc1-a9e7-dcdd515e65f8"
        },
        "effectiveDateTime": "2025-10-16",
        "interpretation": [
          {
            "coding": [
              {
                "system": "http://terminology.hl7.org/CodeSystem/v3-ObservationInterpretation",
                "code": "H",
                "display": "High"
              }
            ]
          }
        ],
        "note": [
          {
            "text": "Definition: https://loinc.org/35648-5/"
          }
        ]
      },
      "request": {
        "method": "POST",
        "url": "Observation"
      }
    },
    {
      "fullUrl": "urn:uuid:19139e12-9745-413d-a125-327b240d1a52",
      "resource": {
        "resourceType": "Observation",
        "id": "19139e12-9745-413d-a125-327b240d1a52",
        "status": "final",
        "category": [
          {
            "coding": [
              {
                "system": "http://terminology.hl7.org/CodeSystem/observation-category",
                "code": "laboratory",
                "display": "Laboratory"
              }
            ],
            "text": "Laboratory"
          }
        ],
        "code": {
          "coding": [
            {
              "system": "http://loinc.org",
              "code": "25746-9",
              "display": "Rheumatoid fact Titr Fld Shp Aggl"
            }
          ],
          "text": "Rheumatoid Factor"
        },
        "subject": {
          "reference": "Patient/b8453431-d738-4de8-a6ba-9e033df73d40"
        },
        "encounter": {
          "reference": "Encounter/a6d5a24c-de15-4dc1-a9e7-dcdd515e65f8"
        },
        "effectiveDateTime": "2025-10-16",
        "interpretation": [
          {
            "coding": [
              {
                "system": "http://terminology.hl7.org/CodeSystem/v3-ObservationInterpretation",
                "code": "L",
                "display": "Low"
              }
            ]
          }
        ],
        "note": [
          {
            "text": "Definition: https://loinc.org/25746-9/"
          }
        ]
      },
      "request": {
        "method": "POST",
        "url": "Observation"
      }
    },
    {
      "fullUrl": "urn:uuid:0e9ef224-2747-48ae-bae2-12b1da861994",
      "resource": {
        "resourceType": "Observation",
        "id": "0e9ef224-2747-48ae-bae2-12b1da861994",
        "status": "final",
        "category": [
          {
            "coding": [
              {
                "system": "http://terminology.hl7.org/CodeSystem/observation-category",
                "code": "laboratory",
                "display": "Laboratory"
              }
            ],
            "text": "Laboratory"
          }
        ],
        "code": {
          "coding": [
            {
              "system": "http://loinc.org",
              "code": "unknown",
              "display": "Leukocytosis"
            }
          ],
          "text": "Leukocytosis"
        },
        "subject": {
          "reference": "Patient/b8453431-d738-4de8-a6ba-9e033df73d40"
        },
        "encounter": {
          "reference": "Encounter/a6d5a24c-de15-4dc1-a9e7-dcdd515e65f8"
        },
        "effectiveDateTime": "2025-10-16",
        "interpretation": [
          {
            "coding": [
              {
                "system": "http://terminology.hl7.org/CodeSystem/v3-ObservationInterpretation",
                "code": "H",
                "display": "High"
              }
            ]
          }
        ]
      },
      "request": {
        "method": "POST",
        "url": "Observation"
      }
    },
    {
      "fullUrl": "urn:uuid:574eaf2d-4e17-409e-b458-14705d643145",
      "resource": {
        "resourceType": "Observation",
        "id": "574eaf2d-4e17-409e-b458-14705d643145",
        "status": "final",
        "category": [
          {
            "coding": [
              {
                "system": "http://terminology.hl7.org/CodeSystem/observation-category",
                "code": "exam",
                "display": "Exam"
              }
            ],
            "text": "Exam"
          }
        ],
        "code": {
          "coding": [
            {
              "system": "http://snomed.info/sct",
              "code": "386661006",
              "display": "Fever"
            }
          ],
          "text": "Fever"
        },
        "subject": {
          "reference": "Patient/b8453431-d738-4de8-a6ba-9e033df73d40"
        },
        "encounter": {
          "reference": "Encounter/a6d5a24c-de15-4dc1-a9e7-dcdd515e65f8"
        },
        "effectivePeriod": {
          "start": "2025-10-16"
        },
        "valueBoolean": true,
        "interpretation": [
          {
            "coding": [
              {
                "system": "http://terminology.hl7.org/CodeSystem/v3-ObservationInterpretation",
                "code": "L",
                "display": "Low"
              }
            ],
            "text": "Low"
          }
        ],
        "note": [
          {
            "text": "Definition: https://snomed.info/id/386661006"
          }
        ]
      },
      "request": {
        "method": "POST",
        "url": "Observation"
      }
    },
    {
      "fullUrl": "urn:uuid:4346fb18-8813-4d97-a1b2-b9e8bd646d31",
      "resource": {
        "resourceType": "Observation",
        "id": "4346fb18-8813-4d97-a1b2-b9e8bd646d31",
        "status": "final",
        "category": [
          {
            "coding": [
              {
                "system": "http://terminology.hl7.org/CodeSystem/observation-category",
                "code": "exam",
                "display": "Exam"
              }
            ],
            "text": "Exam"
          }
        ],
        "code": {
          "coding": [
            {
              "system": "http://snomed.info/sct",
              "code": "25064002",
              "display": "Headache"
            }
          ],
          "text": "Headache"
        },
        "subject": {
          "reference": "Patient/b8453431-d738-4de8-a6ba-9e033df73d40"
        },
        "encounter": {
          "reference": "Encounter/a6d5a24c-de15-4dc1-a9e7-dcdd515e65f8"
        },
        "effectivePeriod": {
          "start": "2025-10-16"
        },
        "valueBoolean": true,
        "note": [
          {
            "text": "Definition: https://snomed.info/id/25064002"
          }
        ]
      },
      "request": {
        "method": "POST",
        "url": "Observation"
      }
    },
    {
      "fullUrl": "urn:uuid:0d19958c-3615-4c69-8eb4-adc7df524fc9",
      "resource": {
        "resourceType": "Observation",
        "id": "0d19958c-3615-4c69-8eb4-adc7df524fc9",
        "status": "final",
        "category": [
          {
            "coding": [
              {
                "system": "http://terminology.hl7.org/CodeSystem/observation-category",
                "code": "exam",
                "display": "Exam"
              }
            ],
            "text": "Exam"
          }
        ],
        "code": {
          "coding": [
            {
              "system": "http://snomed.info/sct"
            }
          ],
          "text": "Myalgias"
        },
        "subject": {
          "reference": "Patient/b8453431-d738-4de8-a6ba-9e033df73d40"
        },
        "encounter": {
          "reference": "Encounter/a6d5a24c-de15-4dc1-a9e7-dcdd515e65f8"
        },
        "effectivePeriod": {
          "start": "2025-10-16"
        },
        "valueBoolean": true,
        "note": [
          {
            "text": "Definition: https://snomed.info/id/None"
          }
        ]
      },
      "request": {
        "method": "POST",
        "url": "Observation"
      }
    },
    {
      "fullUrl": "urn:uuid:32764169-f20e-4c1a-b1ee-5e96c8773675",
      "resource": {
        "resourceType": "Observation",
        "id": "32764169-f20e-4c1a-b1ee-5e96c8773675",
        "status": "final",
        "category": [
          {
            "coding": [
              {
                "system": "http://terminology.hl7.org/CodeSystem/observation-category",
                "code": "exam",
                "display": "Exam"
              }
            ],
            "text": "Exam"
          }
        ],
        "code": {
          "coding": [
            {
              "system": "http://snomed.info/sct",
              "code": "57676002",
              "display": "Joint pain"
            }
          ],
          "text": "Joint Pain"
        },
        "subject": {
          "reference": "Patient/b8453431-d738-4de8-a6ba-9e033df73d40"
        },
        "encounter": {
          "reference": "Encounter/a6d5a24c-de15-4dc1-a9e7-dcdd515e65f8"
        },
        "effectivePeriod": {
          "start": "2025-10-16"
        },
        "valueBoolean": true,
        "note": [
          {
            "text": "Definition: https://snomed.info/id/57676002"
          }
        ]
      },
      "request": {
        "method": "POST",
        "url": "Observation"
      }
    },
    {
      "fullUrl": "urn:uuid:ebd1c90e-c464-4bcc-a0f9-73a2e442c757",
      "resource": {
        "resourceType": "Observation",
        "id": "ebd1c90e-c464-4bcc-a0f9-73a2e442c757",
        "status": "final",
        "category": [
          {
            "coding": [
              {
                "system": "http://terminology.hl7.org/CodeSystem/observation-category",
                "code": "exam",
                "display": "Exam"
              }
            ],
            "text": "Exam"
          }
        ],
        "code": {
          "coding": [
            {
              "system": "http://snomed.info/sct",
              "code": "276719000",
              "display": "Phototherapy skin rash"
            }
          ],
          "text": "Skin Rash"
        },
        "subject": {
          "reference": "Patient/b8453431-d738-4de8-a6ba-9e033df73d40"
        },
        "encounter": {
          "reference": "Encounter/a6d5a24c-de15-4dc1-a9e7-dcdd515e65f8"
        },
        "effectivePeriod": {
          "start": "2025-10-16"
        },
        "valueBoolean": true,
        "note": [
          {
            "text": "Definition: https://snomed.info/id/276719000"
          }
        ]
      },
      "request": {
        "method": "POST",
        "url": "Observation"
      }
    },
    {
      "fullUrl": "urn:uuid:e2788685-bf6b-445c-8fa1-e7b137d2410c",
      "resource": {
        "resourceType": "Observation",
        "id": "e2788685-bf6b-445c-8fa1-e7b137d2410c",
        "status": "final",
        "category": [
          {
            "coding": [
              {
                "system": "http://terminology.hl7.org/CodeSystem/observation-category",
                "code": "vital-signs",
                "display": "Vital Signs"
              }
            ],
            "text": "Vital Signs"
          }
        ],
        "code": {
          "coding": [
            {
              "system": "http://loinc.org",
              "code": "8310-5",
              "display": "Body temperature"
            }
          ],
          "text": "Body Temperature"
        },
        "subject": {
          "reference": "Patient/b8453431-d738-4de8-a6ba-9e033df73d40"
        },
        "encounter": {
          "reference": "Encounter/a6d5a24c-de15-4dc1-a9e7-dcdd515e65f8"
        },
        "effectiveDateTime": "2025-10-16",
        "interpretation": [
          {
            "coding": [
              {
                "system": "http://terminology.hl7.org/CodeSystem/v3-ObservationInterpretation",
                "code": "L",
                "display": "Low"
              }
            ],
            "text": "Low"
          }
        ]
      },
      "request": {
        "method": "POST",
        "url": "Observation"
      }
    },
    {
      "fullUrl": "urn:uuid:a52d016e-ba3c-4fa0-aaf3-995ea78a4346",
      "resource": {
        "resourceType": "List",
        "id": "a52d016e-ba3c-4fa0-aaf3-995ea78a4346",
        "contained": [
          {
            "resourceType": "FamilyMemberHistory",
            "id": "fmh-1",
            "status": "completed",
            "patient": {
              "reference": "Patient/b8453431-d738-4de8-a6ba-9e033df73d40"
            },
            "relationship": {
              "coding": [
                {
                  "system": "http://snomed.info/sct",
                  "code": "72705000",
                  "display": "Mother"
                }
              ]
            },
            "deceasedBoolean": false,
            "condition": [
              {
                "code": {
                  "coding": [
                    {
                      "system": "http://snomed.info/sct",
                      "code": "69896004",
                      "display": "Rheumatoid arthritis"
                    }
                  ]
                }
              }
            ]
          }
        ],
        "status": "current",
        "mode": "snapshot",
        "code": {
          "coding": [
            {
              "system": "http://loinc.org",
              "code": "8670-2",
              "display": "History of family member diseases"
            }
          ]
        },
        "subject": [
          {
            "reference": "Patient/b8453431-d738-4de8-a6ba-9e033df73d40"
          }
        ],
        "entry": [
          {
            "item": {
              "reference": "#fmh-1"
            }
          }
        ]
      },
      "request": {
        "method": "POST",
        "url": "FamilyMemberHistory"
      }
    }
  ]
}