{
  "resourceType": "Bundle",
  "type": "transaction",
  "entry": [
    {
      "fullUrl": "urn:uuid:3cfd50df-3c51-4a7a-8e9a-a2e460635ce7",
      "resource": {
        "resourceType": "Patient",
        "id": "3cfd50df-3c51-4a7a-8e9a-a2e460635ce7",
        "name": [
          {
            "family": "Markova",
            "given": [
              "Mila"
            ]
          }
        ],
        "gender": "female",
        "address": [
          {}
        ]
      },
      "request": {
        "method": "POST",
        "url": "Patient"
      }
    },
    {
      "fullUrl": "urn:uuid:3e5a8cae-99b8-4ba1-947c-de2a8592342f",
      "resource": {
        "resourceType": "Encounter",
        "id": "3e5a8cae-99b8-4ba1-947c-de2a8592342f",
        "identifier": [
          {
            "use": "temp",
            "value": "Encounter_Mila Markova_20251017182541"
          }
        ],
        "status": "completed",
        "priority": {
          "coding": [
            {
              "system": "http://snomed.info/sct",
              "code": "17621005",
              "display": "Normal"
            }
          ]
        },
        "type": [
          {
            "coding": [
              {
                "system": "http://snomed.info/sct",
                "code": "11429006",
                "display": "Consultation"
              }
            ]
          }
        ],
        "subject": {
          "reference": "Patient/3cfd50df-3c51-4a7a-8e9a-a2e460635ce7",
          "display": "Mila Markova"
        },
        "reason": [
          {
            "value": [
              {
                "concept": {
                  "text": "persistent low-grade fever, muscle aches, and unintentional weight loss"
                }
              }
            ]
          }
        ]
      },
      "request": {
        "method": "POST",
        "url": "Encounter"
      }
    },
    {
      "fullUrl": "urn:uuid:5284eedd-e36a-4d52-b075-ccf05e1b6be7",
      "resource": {
        "resourceType": "Observation",
        "id": "5284eedd-e36a-4d52-b075-ccf05e1b6be7",
        "status": "final",
        "category": [
          {
            "coding": [
              {
                "system": "http://terminology.hl7.org/CodeSystem/observation-category",
                "code": "laboratory",
                "display": "Laboratory"
              }
            ],
            "text": "Laboratory"
          }
        ],
        "code": {
          "coding": [
            {
              "system": "http://loinc.org",
              "code": "unknown",
              "display": "Erythrocyte Sedimentation Rate (ESR)"
            }
          ],
          "text": "Erythrocyte Sedimentation Rate (ESR)"
        },
        "subject": {
          "reference": "Patient/3cfd50df-3c51-4a7a-8e9a-a2e460635ce7"
        },
        "encounter": {
          "reference": "Encounter/3e5a8cae-99b8-4ba1-947c-de2a8592342f"
        },
        "effectiveDateTime": "2025-10-16",
        "interpretation": [
          {
            "coding": [
              {
                "system": "http://terminology.hl7.org/CodeSystem/v3-ObservationInterpretation",
                "code": "H",
                "display": "High"
              }
            ]
          }
        ]
      },
      "request": {
        "method": "POST",
        "url": "Observation"
      }
    },
    {
      "fullUrl": "urn:uuid:faa133a2-898e-4ce9-a4d7-6aa2f261ac8b",
      "resource": {
        "resourceType": "Observation",
        "id": "faa133a2-898e-4ce9-a4d7-6aa2f261ac8b",
        "status": "final",
        "category": [
          {
            "coding": [
              {
                "system": "http://terminology.hl7.org/CodeSystem/observation-category",
                "code": "laboratory",
                "display": "Laboratory"
              }
            ],
            "text": "Laboratory"
          }
        ],
        "code": {
          "coding": [
            {
              "system": "http://loinc.org",
              "code": "35648-5",
              "display": "CRP Quint SerPl Qn HS"
            }
          ],
          "text": "C-Reactive Protein (CRP)"
        },
        "subject": {
          "reference": "Patient/3cfd50df-3c51-4a7a-8e9a-a2e460635ce7"
        },
        "encounter": {
          "reference": "Encounter/3e5a8cae-99b8-4ba1-947c-de2a8592342f"
        },
        "effectiveDateTime": "2025-10-16",
        "interpretation": [
          {
            "coding": [
              {
                "system": "http://terminology.hl7.org/CodeSystem/v3-ObservationInterpretation",
                "code": "H",
                "display": "High"
              }
            ]
          }
        ],
        "note": [
          {
            "text": "Definition: https://loinc.org/35648-5/"
          }
        ]
      },
      "request": {
        "method": "POST",
        "url": "Observation"
      }
    },
    {
      "fullUrl": "urn:uuid:72fe8340-678a-4cac-a386-c70c5545eabc",
      "resource": {
        "resourceType": "Observation",
        "id": "72fe8340-678a-4cac-a386-c70c5545eabc",
        "status": "final",
        "category": [
          {
            "coding": [
              {
                "system": "http://terminology.hl7.org/CodeSystem/observation-category",
                "code": "laboratory",
                "display": "Laboratory"
              }
            ],
            "text": "Laboratory"
          }
        ],
        "code": {
          "coding": [
            {
              "system": "http://loinc.org",
              "code": "unknown",
              "display": "Antinuclear Antibody (ANA) Test"
            }
          ],
          "text": "Antinuclear Antibody (ANA) Test"
        },
        "subject": {
          "reference": "Patient/3cfd50df-3c51-4a7a-8e9a-a2e460635ce7"
        },
        "encounter": {
          "reference": "Encounter/3e5a8cae-99b8-4ba1-947c-de2a8592342f"
        },
        "effectiveDateTime": "2025-10-16"
      },
      "request": {
        "method": "POST",
        "url": "Observation"
      }
    },
    {
      "fullUrl": "urn:uuid:2504096e-3aeb-45b0-8ee7-360765556d7d",
      "resource": {
        "resourceType": "Observation",
        "id": "2504096e-3aeb-45b0-8ee7-360765556d7d",
        "status": "final",
        "category": [
          {
            "coding": [
              {
                "system": "http://terminology.hl7.org/CodeSystem/observation-category",
                "code": "laboratory",
                "display": "Laboratory"
              }
            ],
            "text": "Laboratory"
          }
        ],
        "code": {
          "coding": [
            {
              "system": "http://loinc.org",
              "code": "111462-8",
              "display": "dsDNA Ab Msmt Ser"
            }
          ],
          "text": "Anti-dsDNA"
        },
        "subject": {
          "reference": "Patient/3cfd50df-3c51-4a7a-8e9a-a2e460635ce7"
        },
        "encounter": {
          "reference": "Encounter/3e5a8cae-99b8-4ba1-947c-de2a8592342f"
        },
        "effectiveDateTime": "2025-10-16",
        "note": [
          {
            "text": "Definition: https://loinc.org/111462-8/"
          }
        ]
      },
      "request": {
        "method": "POST",
        "url": "Observation"
      }
    },
    {
      "fullUrl": "urn:uuid:56dbd42e-f8b9-4cee-8a9a-aedb82c51452",
      "resource": {
        "resourceType": "Observation",
        "id": "56dbd42e-f8b9-4cee-8a9a-aedb82c51452",
        "status": "final",
        "category": [
          {
            "coding": [
              {
                "system": "http://terminology.hl7.org/CodeSystem/observation-category",
                "code": "exam",
                "display": "Exam"
              }
            ],
            "text": "Exam"
          }
        ],
        "code": {
          "coding": [
            {
              "system": "http://snomed.info/sct",
              "code": "369766003",
              "display": "Low grade (lymphoma)"
            }
          ],
          "text": "Low-grade fever"
        },
        "subject": {
          "reference": "Patient/3cfd50df-3c51-4a7a-8e9a-a2e460635ce7"
        },
        "encounter": {
          "reference": "Encounter/3e5a8cae-99b8-4ba1-947c-de2a8592342f"
        },
        "effectivePeriod": {
          "start": "2025-10-16"
        },
        "valueBoolean": true,
        "note": [
          {
            "text": "Definition: https://snomed.info/id/369766003"
          }
        ]
      },
      "request": {
        "method": "POST",
        "url": "Observation"
      }
    },
    {
      "fullUrl": "urn:uuid:2517b73d-f327-4654-8e3d-6d7cb3e4f59a",
      "resource": {
        "resourceType": "Observation",
        "id": "2517b73d-f327-4654-8e3d-6d7cb3e4f59a",
        "status": "final",
        "category": [
          {
            "coding": [
              {
                "system": "http://terminology.hl7.org/CodeSystem/observation-category",
                "code": "exam",
                "display": "Exam"
              }
            ],
            "text": "Exam"
          }
        ],
        "code": {
          "coding": [
            {
              "system": "http://snomed.info/sct",
              "code": "82991003",
              "display": "Generalized aches and pains"
            }
          ],
          "text": "Muscle aches"
        },
        "subject": {
          "reference": "Patient/3cfd50df-3c51-4a7a-8e9a-a2e460635ce7"
        },
        "encounter": {
          "reference": "Encounter/3e5a8cae-99b8-4ba1-947c-de2a8592342f"
        },
        "effectivePeriod": {
          "start": "2025-10-16"
        },
        "valueBoolean": true,
        "note": [
          {
            "text": "Definition: https://snomed.info/id/82991003"
          }
        ]
      },
      "request": {
        "method": "POST",
        "url": "Observation"
      }
    },
    {
      "fullUrl": "urn:uuid:26692122-1e84-441a-9a79-8591356f91e7",
      "resource": {
        "resourceType": "Observation",
        "id": "26692122-1e84-441a-9a79-8591356f91e7",
        "status": "final",
        "category": [
          {
            "coding": [
              {
                "system": "http://terminology.hl7.org/CodeSystem/observation-category",
                "code": "exam",
                "display": "Exam"
              }
            ],
            "text": "Exam"
          }
        ],
        "code": {
          "coding": [
            {
              "system": "http://snomed.info/sct",
              "code": "448765001",
              "display": "Unintentional weight loss"
            }
          ],
          "text": "Unintentional weight loss"
        },
        "subject": {
          "reference": "Patient/3cfd50df-3c51-4a7a-8e9a-a2e460635ce7"
        },
        "encounter": {
          "reference": "Encounter/3e5a8cae-99b8-4ba1-947c-de2a8592342f"
        },
        "effectivePeriod": {
          "start": "2025-10-16"
        },
        "valueBoolean": true,
        "note": [
          {
            "text": "Definition: https://snomed.info/id/448765001"
          }
        ]
      },
      "request": {
        "method": "POST",
        "url": "Observation"
      }
    },
    {
      "fullUrl": "urn:uuid:bc5f62e6-7096-4cc0-a952-dc9a22bf77b7",
      "resource": {
        "resourceType": "Observation",
        "id": "bc5f62e6-7096-4cc0-a952-dc9a22bf77b7",
        "status": "final",
        "category": [
          {
            "coding": [
              {
                "system": "http://terminology.hl7.org/CodeSystem/observation-category",
                "code": "exam",
                "display": "Exam"
              }
            ],
            "text": "Exam"
          }
        ],
        "code": {
          "coding": [
            {
              "system": "http://snomed.info/sct",
              "code": "125318001",
              "display": "Multiple ulcers"
            }
          ],
          "text": "Mouth ulcers"
        },
        "subject": {
          "reference": "Patient/3cfd50df-3c51-4a7a-8e9a-a2e460635ce7"
        },
        "encounter": {
          "reference": "Encounter/3e5a8cae-99b8-4ba1-947c-de2a8592342f"
        },
        "effectivePeriod": {
          "start": "2025-10-16"
        },
        "valueBoolean": true,
        "note": [
          {
            "text": "Definition: https://snomed.info/id/125318001"
          }
        ]
      },
      "request": {
        "method": "POST",
        "url": "Observation"
      }
    },
    {
      "fullUrl": "urn:uuid:54223c20-6f4b-4668-bf10-df3772a9cf77",
      "resource": {
        "resourceType": "Observation",
        "id": "54223c20-6f4b-4668-bf10-df3772a9cf77",
        "status": "final",
        "category": [
          {
            "coding": [
              {
                "system": "http://terminology.hl7.org/CodeSystem/observation-category",
                "code": "exam",
                "display": "Exam"
              }
            ],
            "text": "Exam"
          }
        ],
        "code": {
          "coding": [
            {
              "system": "http://snomed.info/sct",
              "code": "827160004",
              "display": "Erythematous rash"
            }
          ],
          "text": "Erythematous rash"
        },
        "subject": {
          "reference": "Patient/3cfd50df-3c51-4a7a-8e9a-a2e460635ce7"
        },
        "encounter": {
          "reference": "Encounter/3e5a8cae-99b8-4ba1-947c-de2a8592342f"
        },
        "effectivePeriod": {
          "start": "2025-10-16"
        },
        "valueBoolean": true,
        "note": [
          {
            "text": "Definition: https://snomed.info/id/827160004"
          }
        ]
      },
      "request": {
        "method": "POST",
        "url": "Observation"
      }
    },
    {
      "fullUrl": "urn:uuid:ea0e8c56-c3ce-4831-b4f7-9473fae4092c",
      "resource": {
        "resourceType": "Observation",
        "id": "ea0e8c56-c3ce-4831-b4f7-9473fae4092c",
        "status": "final",
        "category": [
          {
            "coding": [
              {
                "system": "http://terminology.hl7.org/CodeSystem/observation-category",
                "code": "vital-signs",
                "display": "Vital Signs"
              }
            ],
            "text": "Vital Signs"
          }
        ],
        "code": {
          "coding": [
            {
              "system": "http://loinc.org",
              "code": "8310-5",
              "display": "Body temperature"
            }
          ],
          "text": "Body temperature"
        },
        "subject": {
          "reference": "Patient/3cfd50df-3c51-4a7a-8e9a-a2e460635ce7"
        },
        "encounter": {
          "reference": "Encounter/3e5a8cae-99b8-4ba1-947c-de2a8592342f"
        },
        "effectiveDateTime": "2025-10-16",
        "valueQuantity": {
          "value": 38.0,
          "unit": "degrees C",
          "system": "http://unitsofmeasure.org",
          "code": "degrees C"
        },
        "interpretation": [
          {
            "coding": [
              {
                "system": "http://terminology.hl7.org/CodeSystem/v3-ObservationInterpretation",
                "code": "H",
                "display": "High"
              }
            ],
            "text": "High"
          }
        ]
      },
      "request": {
        "method": "POST",
        "url": "Observation"
      }
    },
    {
      "fullUrl": "urn:uuid:cf09d66e-36f2-4866-9edb-940eb1c51910",
      "resource": {
        "resourceType": "List",
        "id": "cf09d66e-36f2-4866-9edb-940eb1c51910",
        "contained": [
          {
            "resourceType": "FamilyMemberHistory",
            "id": "fmh-1",
            "status": "completed",
            "patient": {
              "reference": "Patient/3cfd50df-3c51-4a7a-8e9a-a2e460635ce7"
            },
            "relationship": {
              "coding": [
                {
                  "system": "http://snomed.info/sct",
                  "code": "736454006",
                  "display": "Maternal aunt"
                }
              ]
            },
            "deceasedBoolean": false,
            "condition": [
              {
                "code": {
                  "coding": [
                    {
                      "system": "http://snomed.info/sct",
                      "code": "200936003",
                      "display": "Lupus erythematosus"
                    }
                  ]
                }
              }
            ]
          }
        ],
        "status": "current",
        "mode": "snapshot",
        "code": {
          "coding": [
            {
              "system": "http://loinc.org",
              "code": "8670-2",
              "display": "History of family member diseases"
            }
          ]
        },
        "subject": [
          {
            "reference": "Patient/3cfd50df-3c51-4a7a-8e9a-a2e460635ce7"
          }
        ],
        "note": [
          {
            "text": "Notable for autoimmune disorders"
          }
        ],
        "entry": [
          {
            "item": {
              "reference": "#fmh-1"
            }
          }
        ]
      },
      "request": {
        "method": "POST",
        "url": "FamilyMemberHistory"
      }
    }
  ]
}