{
  "resourceType": "Bundle",
  "type": "transaction",
  "entry": [
    {
      "fullUrl": "urn:uuid:04eb8131-56a0-4230-a3b3-a6cbe4d3a2b4",
      "resource": {
        "resourceType": "Patient",
        "id": "04eb8131-56a0-4230-a3b3-a6cbe4d3a2b4",
        "name": [
          {
            "family": "Fedorov",
            "given": [
              "Dmitry"
            ]
          }
        ],
        "gender": "male",
        "birthDate": "2001-01-01",
        "address": [
          {}
        ]
      },
      "request": {
        "method": "POST",
        "url": "Patient"
      }
    },
    {
      "fullUrl": "urn:uuid:fff28c72-8d47-4772-8b0a-977db50f94c2",
      "resource": {
        "resourceType": "Encounter",
        "id": "fff28c72-8d47-4772-8b0a-977db50f94c2",
        "identifier": [
          {
            "use": "temp",
            "value": "Encounter_Dmitry Fedorov_20251022152137"
          }
        ],
        "status": "completed",
        "priority": {
          "coding": [
            {
              "system": "http://snomed.info/sct",
              "code": "17621005",
              "display": "Normal"
            }
          ]
        },
        "type": [
          {
            "coding": [
              {
                "system": "http://snomed.info/sct",
                "code": "11429006",
                "display": "Consultation"
              }
            ]
          }
        ],
        "subject": {
          "reference": "Patient/04eb8131-56a0-4230-a3b3-a6cbe4d3a2b4",
          "display": "Dmitry Fedorov"
        },
        "reason": [
          {
            "value": [
              {
                "concept": {
                  "text": "recent onset of recurrent fevers, headache, and myalgias, accompanied by an increasing joint pain in his knees"
                }
              }
            ]
          }
        ]
      },
      "request": {
        "method": "POST",
        "url": "Encounter"
      }
    },
    {
      "fullUrl": "urn:uuid:add50050-a912-489c-b7f0-44465f330a7a",
      "resource": {
        "resourceType": "Observation",
        "id": "add50050-a912-489c-b7f0-44465f330a7a",
        "status": "final",
        "category": [
          {
            "coding": [
              {
                "system": "http://terminology.hl7.org/CodeSystem/observation-category",
                "code": "laboratory",
                "display": "Laboratory"
              }
            ],
            "text": "Laboratory"
          }
        ],
        "code": {
          "coding": [
            {
              "system": "http://loinc.org",
              "code": "unknown",
              "display": "Erythrocyte Sedimentation Rate (ESR)"
            }
          ],
          "text": "Erythrocyte Sedimentation Rate (ESR)"
        },
        "subject": {
          "reference": "Patient/04eb8131-56a0-4230-a3b3-a6cbe4d3a2b4"
        },
        "encounter": {
          "reference": "Encounter/fff28c72-8d47-4772-8b0a-977db50f94c2"
        },
        "effectiveDateTime": "2025-10-16",
        "interpretation": [
          {
            "coding": [
              {
                "system": "http://terminology.hl7.org/CodeSystem/v3-ObservationInterpretation",
                "code": "H",
                "display": "High"
              }
            ]
          }
        ]
      },
      "request": {
        "method": "POST",
        "url": "Observation"
      }
    },
    {
      "fullUrl": "urn:uuid:96f84569-f95b-4f95-b3ab-801888d448f3",
      "resource": {
        "resourceType": "Observation",
        "id": "96f84569-f95b-4f95-b3ab-801888d448f3",
        "status": "final",
        "category": [
          {
            "coding": [
              {
                "system": "http://terminology.hl7.org/CodeSystem/observation-category",
                "code": "laboratory",
                "display": "Laboratory"
              }
            ],
            "text": "Laboratory"
          }
        ],
        "code": {
          "coding": [
            {
              "system": "http://loinc.org",
              "code": "35648-5",
              "display": "CRP Quint SerPl Qn HS"
            }
          ],
          "text": "C-Reactive Protein (CRP)"
        },
        "subject": {
          "reference": "Patient/04eb8131-56a0-4230-a3b3-a6cbe4d3a2b4"
        },
        "encounter": {
          "reference": "Encounter/fff28c72-8d47-4772-8b0a-977db50f94c2"
        },
        "effectiveDateTime": "2025-10-16",
        "interpretation": [
          {
            "coding": [
              {
                "system": "http://terminology.hl7.org/CodeSystem/v3-ObservationInterpretation",
                "code": "H",
                "display": "High"
              }
            ]
          }
        ],
        "note": [
          {
            "text": "Definition: https://loinc.org/35648-5/"
          }
        ]
      },
      "request": {
        "method": "POST",
        "url": "Observation"
      }
    },
    {
      "fullUrl": "urn:uuid:22ed1918-4a78-4db6-83c7-8fe002d77e29",
      "resource": {
        "resourceType": "Observation",
        "id": "22ed1918-4a78-4db6-83c7-8fe002d77e29",
        "status": "final",
        "category": [
          {
            "coding": [
              {
                "system": "http://terminology.hl7.org/CodeSystem/observation-category",
                "code": "laboratory",
                "display": "Laboratory"
              }
            ],
            "text": "Laboratory"
          }
        ],
        "code": {
          "coding": [
            {
              "system": "http://loinc.org",
              "code": "25746-9",
              "display": "Rheumatoid fact Titr Fld Shp Aggl"
            }
          ],
          "text": "Rheumatoid Factor"
        },
        "subject": {
          "reference": "Patient/04eb8131-56a0-4230-a3b3-a6cbe4d3a2b4"
        },
        "encounter": {
          "reference": "Encounter/fff28c72-8d47-4772-8b0a-977db50f94c2"
        },
        "effectiveDateTime": "2025-10-16",
        "interpretation": [
          {
            "coding": [
              {
                "system": "http://terminology.hl7.org/CodeSystem/v3-ObservationInterpretation",
                "code": "L",
                "display": "Low"
              }
            ]
          }
        ],
        "note": [
          {
            "text": "Definition: https://loinc.org/25746-9/"
          }
        ]
      },
      "request": {
        "method": "POST",
        "url": "Observation"
      }
    },
    {
      "fullUrl": "urn:uuid:7ed11751-d67d-4b44-bf5e-9404b1a73ab3",
      "resource": {
        "resourceType": "Observation",
        "id": "7ed11751-d67d-4b44-bf5e-9404b1a73ab3",
        "status": "final",
        "category": [
          {
            "coding": [
              {
                "system": "http://terminology.hl7.org/CodeSystem/observation-category",
                "code": "laboratory",
                "display": "Laboratory"
              }
            ],
            "text": "Laboratory"
          }
        ],
        "code": {
          "coding": [
            {
              "system": "http://loinc.org",
              "code": "unknown",
              "display": "Leukocytosis"
            }
          ],
          "text": "Leukocytosis"
        },
        "subject": {
          "reference": "Patient/04eb8131-56a0-4230-a3b3-a6cbe4d3a2b4"
        },
        "encounter": {
          "reference": "Encounter/fff28c72-8d47-4772-8b0a-977db50f94c2"
        },
        "effectiveDateTime": "2025-10-16",
        "interpretation": [
          {
            "coding": [
              {
                "system": "http://terminology.hl7.org/CodeSystem/v3-ObservationInterpretation",
                "code": "H",
                "display": "High"
              }
            ]
          }
        ]
      },
      "request": {
        "method": "POST",
        "url": "Observation"
      }
    },
    {
      "fullUrl": "urn:uuid:bb467fc6-a752-4ba5-b407-c97e3d5d77a3",
      "resource": {
        "resourceType": "Observation",
        "id": "bb467fc6-a752-4ba5-b407-c97e3d5d77a3",
        "status": "final",
        "category": [
          {
            "coding": [
              {
                "system": "http://terminology.hl7.org/CodeSystem/observation-category",
                "code": "exam",
                "display": "Exam"
              }
            ],
            "text": "Exam"
          }
        ],
        "code": {
          "coding": [
            {
              "system": "http://snomed.info/sct",
              "code": "386661006",
              "display": "Fever"
            }
          ],
          "text": "Fever"
        },
        "subject": {
          "reference": "Patient/04eb8131-56a0-4230-a3b3-a6cbe4d3a2b4"
        },
        "encounter": {
          "reference": "Encounter/fff28c72-8d47-4772-8b0a-977db50f94c2"
        },
        "effectivePeriod": {
          "start": "2025-10-16"
        },
        "valueBoolean": true,
        "interpretation": [
          {
            "coding": [
              {
                "system": "http://terminology.hl7.org/CodeSystem/v3-ObservationInterpretation",
                "code": "L",
                "display": "Low"
              }
            ],
            "text": "Low"
          }
        ],
        "note": [
          {
            "text": "Definition: https://snomed.info/id/386661006"
          }
        ]
      },
      "request": {
        "method": "POST",
        "url": "Observation"
      }
    },
    {
      "fullUrl": "urn:uuid:a60d2a7e-44b9-490c-8f18-d946c0e61839",
      "resource": {
        "resourceType": "Observation",
        "id": "a60d2a7e-44b9-490c-8f18-d946c0e61839",
        "status": "final",
        "category": [
          {
            "coding": [
              {
                "system": "http://terminology.hl7.org/CodeSystem/observation-category",
                "code": "exam",
                "display": "Exam"
              }
            ],
            "text": "Exam"
          }
        ],
        "code": {
          "coding": [
            {
              "system": "http://snomed.info/sct",
              "code": "25064002",
              "display": "Headache"
            }
          ],
          "text": "Headache"
        },
        "subject": {
          "reference": "Patient/04eb8131-56a0-4230-a3b3-a6cbe4d3a2b4"
        },
        "encounter": {
          "reference": "Encounter/fff28c72-8d47-4772-8b0a-977db50f94c2"
        },
        "effectivePeriod": {
          "start": "2025-10-16"
        },
        "valueBoolean": true,
        "note": [
          {
            "text": "Definition: https://snomed.info/id/25064002"
          }
        ]
      },
      "request": {
        "method": "POST",
        "url": "Observation"
      }
    },
    {
      "fullUrl": "urn:uuid:d2ec11b2-26c5-49bd-b12d-224b878eeeea",
      "resource": {
        "resourceType": "Observation",
        "id": "d2ec11b2-26c5-49bd-b12d-224b878eeeea",
        "status": "final",
        "category": [
          {
            "coding": [
              {
                "system": "http://terminology.hl7.org/CodeSystem/observation-category",
                "code": "exam",
                "display": "Exam"
              }
            ],
            "text": "Exam"
          }
        ],
        "code": {
          "coding": [
            {
              "system": "http://snomed.info/sct"
            }
          ],
          "text": "Myalgias"
        },
        "subject": {
          "reference": "Patient/04eb8131-56a0-4230-a3b3-a6cbe4d3a2b4"
        },
        "encounter": {
          "reference": "Encounter/fff28c72-8d47-4772-8b0a-977db50f94c2"
        },
        "effectivePeriod": {
          "start": "2025-10-16"
        },
        "valueBoolean": true,
        "note": [
          {
            "text": "Definition: https://snomed.info/id/None"
          }
        ]
      },
      "request": {
        "method": "POST",
        "url": "Observation"
      }
    },
    {
      "fullUrl": "urn:uuid:d976488d-1cd9-4755-b3bd-f041c709ace1",
      "resource": {
        "resourceType": "Observation",
        "id": "d976488d-1cd9-4755-b3bd-f041c709ace1",
        "status": "final",
        "category": [
          {
            "coding": [
              {
                "system": "http://terminology.hl7.org/CodeSystem/observation-category",
                "code": "exam",
                "display": "Exam"
              }
            ],
            "text": "Exam"
          }
        ],
        "code": {
          "coding": [
            {
              "system": "http://snomed.info/sct",
              "code": "57676002",
              "display": "Joint pain"
            }
          ],
          "text": "Joint Pain"
        },
        "subject": {
          "reference": "Patient/04eb8131-56a0-4230-a3b3-a6cbe4d3a2b4"
        },
        "encounter": {
          "reference": "Encounter/fff28c72-8d47-4772-8b0a-977db50f94c2"
        },
        "effectivePeriod": {
          "start": "2025-10-16"
        },
        "valueBoolean": true,
        "note": [
          {
            "text": "Definition: https://snomed.info/id/57676002"
          }
        ]
      },
      "request": {
        "method": "POST",
        "url": "Observation"
      }
    },
    {
      "fullUrl": "urn:uuid:be730e61-c946-47ce-aa34-3589749819c0",
      "resource": {
        "resourceType": "Observation",
        "id": "be730e61-c946-47ce-aa34-3589749819c0",
        "status": "final",
        "category": [
          {
            "coding": [
              {
                "system": "http://terminology.hl7.org/CodeSystem/observation-category",
                "code": "exam",
                "display": "Exam"
              }
            ],
            "text": "Exam"
          }
        ],
        "code": {
          "coding": [
            {
              "system": "http://snomed.info/sct",
              "code": "276719000",
              "display": "Phototherapy skin rash"
            }
          ],
          "text": "Skin Rash"
        },
        "subject": {
          "reference": "Patient/04eb8131-56a0-4230-a3b3-a6cbe4d3a2b4"
        },
        "encounter": {
          "reference": "Encounter/fff28c72-8d47-4772-8b0a-977db50f94c2"
        },
        "effectivePeriod": {
          "start": "2025-10-16"
        },
        "valueBoolean": true,
        "note": [
          {
            "text": "Definition: https://snomed.info/id/276719000"
          }
        ]
      },
      "request": {
        "method": "POST",
        "url": "Observation"
      }
    },
    {
      "fullUrl": "urn:uuid:3a066a57-db44-4f99-b2e5-44309e882c70",
      "resource": {
        "resourceType": "Observation",
        "id": "3a066a57-db44-4f99-b2e5-44309e882c70",
        "status": "final",
        "category": [
          {
            "coding": [
              {
                "system": "http://terminology.hl7.org/CodeSystem/observation-category",
                "code": "vital-signs",
                "display": "Vital Signs"
              }
            ],
            "text": "Vital Signs"
          }
        ],
        "code": {
          "coding": [
            {
              "system": "http://loinc.org",
              "code": "8310-5",
              "display": "Body temperature"
            }
          ],
          "text": "Body Temperature"
        },
        "subject": {
          "reference": "Patient/04eb8131-56a0-4230-a3b3-a6cbe4d3a2b4"
        },
        "encounter": {
          "reference": "Encounter/fff28c72-8d47-4772-8b0a-977db50f94c2"
        },
        "effectiveDateTime": "2025-10-16",
        "interpretation": [
          {
            "coding": [
              {
                "system": "http://terminology.hl7.org/CodeSystem/v3-ObservationInterpretation",
                "code": "L",
                "display": "Low"
              }
            ],
            "text": "Low"
          }
        ]
      },
      "request": {
        "method": "POST",
        "url": "Observation"
      }
    },
    {
      "fullUrl": "urn:uuid:264594d2-62d0-4fda-9a32-c64ba5a18c49",
      "resource": {
        "resourceType": "List",
        "id": "264594d2-62d0-4fda-9a32-c64ba5a18c49",
        "contained": [
          {
            "resourceType": "FamilyMemberHistory",
            "id": "fmh-1",
            "status": "completed",
            "patient": {
              "reference": "Patient/04eb8131-56a0-4230-a3b3-a6cbe4d3a2b4"
            },
            "relationship": {
              "coding": [
                {
                  "system": "http://snomed.info/sct",
                  "code": "72705000",
                  "display": "Mother"
                }
              ]
            },
            "deceasedBoolean": false,
            "condition": [
              {
                "code": {
                  "coding": [
                    {
                      "system": "http://snomed.info/sct",
                      "code": "69896004",
                      "display": "Rheumatoid arthritis"
                    }
                  ]
                }
              }
            ]
          }
        ],
        "status": "current",
        "mode": "snapshot",
        "code": {
          "coding": [
            {
              "system": "http://loinc.org",
              "code": "8670-2",
              "display": "History of family member diseases"
            }
          ]
        },
        "subject": [
          {
            "reference": "Patient/04eb8131-56a0-4230-a3b3-a6cbe4d3a2b4"
          }
        ],
        "entry": [
          {
            "item": {
              "reference": "#fmh-1"
            }
          }
        ]
      },
      "request": {
        "method": "POST",
        "url": "FamilyMemberHistory"
      }
    }
  ]
}