{
  "resourceType": "Bundle",
  "type": "transaction",
  "entry": [
    {
      "fullUrl": "urn:uuid:b92e40c9-5326-482c-8ee7-a1d527e1412d",
      "resource": {
        "resourceType": "Patient",
        "id": "b92e40c9-5326-482c-8ee7-a1d527e1412d",
        "name": [
          {
            "family": "Fedorov",
            "given": [
              "Dmitry"
            ]
          }
        ],
        "gender": "male",
        "address": [
          {}
        ]
      },
      "request": {
        "method": "POST",
        "url": "Patient"
      }
    },
    {
      "fullUrl": "urn:uuid:2973b002-8bcd-4ac0-9473-8b6f8f31d03d",
      "resource": {
        "resourceType": "Encounter",
        "id": "2973b002-8bcd-4ac0-9473-8b6f8f31d03d",
        "identifier": [
          {
            "use": "temp",
            "value": "Encounter_Dmitry Fedorov_20251017182558"
          }
        ],
        "status": "completed",
        "priority": {
          "coding": [
            {
              "system": "http://snomed.info/sct",
              "code": "17621005",
              "display": "Normal"
            }
          ]
        },
        "type": [
          {
            "coding": [
              {
                "system": "http://snomed.info/sct",
                "code": "11429006",
                "display": "Consultation"
              }
            ]
          }
        ],
        "subject": {
          "reference": "Patient/b92e40c9-5326-482c-8ee7-a1d527e1412d",
          "display": "Dmitry Fedorov"
        },
        "reason": [
          {
            "value": [
              {
                "concept": {
                  "text": "recent onset of recurrent fevers, headache, and myalgias, accompanied by an increasing joint pain in his knees"
                }
              }
            ]
          }
        ]
      },
      "request": {
        "method": "POST",
        "url": "Encounter"
      }
    },
    {
      "fullUrl": "urn:uuid:1bf96b01-9c24-4d0b-8476-c4f1216277b4",
      "resource": {
        "resourceType": "Observation",
        "id": "1bf96b01-9c24-4d0b-8476-c4f1216277b4",
        "status": "final",
        "category": [
          {
            "coding": [
              {
                "system": "http://terminology.hl7.org/CodeSystem/observation-category",
                "code": "laboratory",
                "display": "Laboratory"
              }
            ],
            "text": "Laboratory"
          }
        ],
        "code": {
          "coding": [
            {
              "system": "http://loinc.org",
              "code": "unknown",
              "display": "Erythrocyte Sedimentation Rate (ESR)"
            }
          ],
          "text": "Erythrocyte Sedimentation Rate (ESR)"
        },
        "subject": {
          "reference": "Patient/b92e40c9-5326-482c-8ee7-a1d527e1412d"
        },
        "encounter": {
          "reference": "Encounter/2973b002-8bcd-4ac0-9473-8b6f8f31d03d"
        },
        "effectiveDateTime": "2025-10-16",
        "interpretation": [
          {
            "coding": [
              {
                "system": "http://terminology.hl7.org/CodeSystem/v3-ObservationInterpretation",
                "code": "H",
                "display": "High"
              }
            ]
          }
        ]
      },
      "request": {
        "method": "POST",
        "url": "Observation"
      }
    },
    {
      "fullUrl": "urn:uuid:28731ee1-78d5-45ec-85fa-125588808b25",
      "resource": {
        "resourceType": "Observation",
        "id": "28731ee1-78d5-45ec-85fa-125588808b25",
        "status": "final",
        "category": [
          {
            "coding": [
              {
                "system": "http://terminology.hl7.org/CodeSystem/observation-category",
                "code": "laboratory",
                "display": "Laboratory"
              }
            ],
            "text": "Laboratory"
          }
        ],
        "code": {
          "coding": [
            {
              "system": "http://loinc.org",
              "code": "35648-5",
              "display": "CRP Quint SerPl Qn HS"
            }
          ],
          "text": "C-Reactive Protein (CRP)"
        },
        "subject": {
          "reference": "Patient/b92e40c9-5326-482c-8ee7-a1d527e1412d"
        },
        "encounter": {
          "reference": "Encounter/2973b002-8bcd-4ac0-9473-8b6f8f31d03d"
        },
        "effectiveDateTime": "2025-10-16",
        "interpretation": [
          {
            "coding": [
              {
                "system": "http://terminology.hl7.org/CodeSystem/v3-ObservationInterpretation",
                "code": "H",
                "display": "High"
              }
            ]
          }
        ],
        "note": [
          {
            "text": "Definition: https://loinc.org/35648-5/"
          }
        ]
      },
      "request": {
        "method": "POST",
        "url": "Observation"
      }
    },
    {
      "fullUrl": "urn:uuid:445f8d40-0c7d-4e0c-99a0-7db949fdb46a",
      "resource": {
        "resourceType": "Observation",
        "id": "445f8d40-0c7d-4e0c-99a0-7db949fdb46a",
        "status": "final",
        "category": [
          {
            "coding": [
              {
                "system": "http://terminology.hl7.org/CodeSystem/observation-category",
                "code": "laboratory",
                "display": "Laboratory"
              }
            ],
            "text": "Laboratory"
          }
        ],
        "code": {
          "coding": [
            {
              "system": "http://loinc.org",
              "code": "25746-9",
              "display": "Rheumatoid fact Titr Fld Shp Aggl"
            }
          ],
          "text": "Rheumatoid Factor"
        },
        "subject": {
          "reference": "Patient/b92e40c9-5326-482c-8ee7-a1d527e1412d"
        },
        "encounter": {
          "reference": "Encounter/2973b002-8bcd-4ac0-9473-8b6f8f31d03d"
        },
        "effectiveDateTime": "2025-10-16",
        "interpretation": [
          {
            "coding": [
              {
                "system": "http://terminology.hl7.org/CodeSystem/v3-ObservationInterpretation",
                "code": "L",
                "display": "Low"
              }
            ]
          }
        ],
        "note": [
          {
            "text": "Definition: https://loinc.org/25746-9/"
          }
        ]
      },
      "request": {
        "method": "POST",
        "url": "Observation"
      }
    },
    {
      "fullUrl": "urn:uuid:1cc43ab0-d569-484c-a4fc-fe54b033a8a0",
      "resource": {
        "resourceType": "Observation",
        "id": "1cc43ab0-d569-484c-a4fc-fe54b033a8a0",
        "status": "final",
        "category": [
          {
            "coding": [
              {
                "system": "http://terminology.hl7.org/CodeSystem/observation-category",
                "code": "laboratory",
                "display": "Laboratory"
              }
            ],
            "text": "Laboratory"
          }
        ],
        "code": {
          "coding": [
            {
              "system": "http://loinc.org",
              "code": "unknown",
              "display": "Leukocytosis"
            }
          ],
          "text": "Leukocytosis"
        },
        "subject": {
          "reference": "Patient/b92e40c9-5326-482c-8ee7-a1d527e1412d"
        },
        "encounter": {
          "reference": "Encounter/2973b002-8bcd-4ac0-9473-8b6f8f31d03d"
        },
        "effectiveDateTime": "2025-10-16",
        "interpretation": [
          {
            "coding": [
              {
                "system": "http://terminology.hl7.org/CodeSystem/v3-ObservationInterpretation",
                "code": "H",
                "display": "High"
              }
            ]
          }
        ]
      },
      "request": {
        "method": "POST",
        "url": "Observation"
      }
    },
    {
      "fullUrl": "urn:uuid:254a4aa6-979b-42fa-a6cf-92bc460893b4",
      "resource": {
        "resourceType": "Observation",
        "id": "254a4aa6-979b-42fa-a6cf-92bc460893b4",
        "status": "final",
        "category": [
          {
            "coding": [
              {
                "system": "http://terminology.hl7.org/CodeSystem/observation-category",
                "code": "exam",
                "display": "Exam"
              }
            ],
            "text": "Exam"
          }
        ],
        "code": {
          "coding": [
            {
              "system": "http://snomed.info/sct",
              "code": "386661006",
              "display": "Fever"
            }
          ],
          "text": "Fever"
        },
        "subject": {
          "reference": "Patient/b92e40c9-5326-482c-8ee7-a1d527e1412d"
        },
        "encounter": {
          "reference": "Encounter/2973b002-8bcd-4ac0-9473-8b6f8f31d03d"
        },
        "effectivePeriod": {
          "start": "2025-10-16"
        },
        "valueBoolean": true,
        "interpretation": [
          {
            "coding": [
              {
                "system": "http://terminology.hl7.org/CodeSystem/v3-ObservationInterpretation",
                "code": "L",
                "display": "Low"
              }
            ],
            "text": "Low"
          }
        ],
        "note": [
          {
            "text": "Definition: https://snomed.info/id/386661006"
          }
        ]
      },
      "request": {
        "method": "POST",
        "url": "Observation"
      }
    },
    {
      "fullUrl": "urn:uuid:8bf7d4b6-042c-4849-ad55-800c0aeb6a5c",
      "resource": {
        "resourceType": "Observation",
        "id": "8bf7d4b6-042c-4849-ad55-800c0aeb6a5c",
        "status": "final",
        "category": [
          {
            "coding": [
              {
                "system": "http://terminology.hl7.org/CodeSystem/observation-category",
                "code": "exam",
                "display": "Exam"
              }
            ],
            "text": "Exam"
          }
        ],
        "code": {
          "coding": [
            {
              "system": "http://snomed.info/sct",
              "code": "25064002",
              "display": "Headache"
            }
          ],
          "text": "Headache"
        },
        "subject": {
          "reference": "Patient/b92e40c9-5326-482c-8ee7-a1d527e1412d"
        },
        "encounter": {
          "reference": "Encounter/2973b002-8bcd-4ac0-9473-8b6f8f31d03d"
        },
        "effectivePeriod": {
          "start": "2025-10-16"
        },
        "valueBoolean": true,
        "note": [
          {
            "text": "Definition: https://snomed.info/id/25064002"
          }
        ]
      },
      "request": {
        "method": "POST",
        "url": "Observation"
      }
    },
    {
      "fullUrl": "urn:uuid:0f1b0580-2d77-4edb-8081-f9442b58e1eb",
      "resource": {
        "resourceType": "Observation",
        "id": "0f1b0580-2d77-4edb-8081-f9442b58e1eb",
        "status": "final",
        "category": [
          {
            "coding": [
              {
                "system": "http://terminology.hl7.org/CodeSystem/observation-category",
                "code": "exam",
                "display": "Exam"
              }
            ],
            "text": "Exam"
          }
        ],
        "code": {
          "coding": [
            {
              "system": "http://snomed.info/sct"
            }
          ],
          "text": "Myalgias"
        },
        "subject": {
          "reference": "Patient/b92e40c9-5326-482c-8ee7-a1d527e1412d"
        },
        "encounter": {
          "reference": "Encounter/2973b002-8bcd-4ac0-9473-8b6f8f31d03d"
        },
        "effectivePeriod": {
          "start": "2025-10-16"
        },
        "valueBoolean": true,
        "note": [
          {
            "text": "Definition: https://snomed.info/id/None"
          }
        ]
      },
      "request": {
        "method": "POST",
        "url": "Observation"
      }
    },
    {
      "fullUrl": "urn:uuid:f20e1c06-257d-48ee-86c3-3ab204c834b4",
      "resource": {
        "resourceType": "Observation",
        "id": "f20e1c06-257d-48ee-86c3-3ab204c834b4",
        "status": "final",
        "category": [
          {
            "coding": [
              {
                "system": "http://terminology.hl7.org/CodeSystem/observation-category",
                "code": "exam",
                "display": "Exam"
              }
            ],
            "text": "Exam"
          }
        ],
        "code": {
          "coding": [
            {
              "system": "http://snomed.info/sct",
              "code": "57676002",
              "display": "Joint pain"
            }
          ],
          "text": "Joint Pain"
        },
        "subject": {
          "reference": "Patient/b92e40c9-5326-482c-8ee7-a1d527e1412d"
        },
        "encounter": {
          "reference": "Encounter/2973b002-8bcd-4ac0-9473-8b6f8f31d03d"
        },
        "effectivePeriod": {
          "start": "2025-10-16"
        },
        "valueBoolean": true,
        "note": [
          {
            "text": "Definition: https://snomed.info/id/57676002"
          }
        ]
      },
      "request": {
        "method": "POST",
        "url": "Observation"
      }
    },
    {
      "fullUrl": "urn:uuid:536bcfbc-7ee3-42b0-ae8a-18da8a4954fa",
      "resource": {
        "resourceType": "Observation",
        "id": "536bcfbc-7ee3-42b0-ae8a-18da8a4954fa",
        "status": "final",
        "category": [
          {
            "coding": [
              {
                "system": "http://terminology.hl7.org/CodeSystem/observation-category",
                "code": "exam",
                "display": "Exam"
              }
            ],
            "text": "Exam"
          }
        ],
        "code": {
          "coding": [
            {
              "system": "http://snomed.info/sct",
              "code": "276719000",
              "display": "Phototherapy skin rash"
            }
          ],
          "text": "Skin Rash"
        },
        "subject": {
          "reference": "Patient/b92e40c9-5326-482c-8ee7-a1d527e1412d"
        },
        "encounter": {
          "reference": "Encounter/2973b002-8bcd-4ac0-9473-8b6f8f31d03d"
        },
        "effectivePeriod": {
          "start": "2025-10-16"
        },
        "valueBoolean": true,
        "note": [
          {
            "text": "Definition: https://snomed.info/id/276719000"
          }
        ]
      },
      "request": {
        "method": "POST",
        "url": "Observation"
      }
    },
    {
      "fullUrl": "urn:uuid:f0635d22-77e9-41bd-88bb-075494fe4c01",
      "resource": {
        "resourceType": "Observation",
        "id": "f0635d22-77e9-41bd-88bb-075494fe4c01",
        "status": "final",
        "category": [
          {
            "coding": [
              {
                "system": "http://terminology.hl7.org/CodeSystem/observation-category",
                "code": "vital-signs",
                "display": "Vital Signs"
              }
            ],
            "text": "Vital Signs"
          }
        ],
        "code": {
          "coding": [
            {
              "system": "http://loinc.org",
              "code": "8310-5",
              "display": "Body temperature"
            }
          ],
          "text": "temperature"
        },
        "subject": {
          "reference": "Patient/b92e40c9-5326-482c-8ee7-a1d527e1412d"
        },
        "encounter": {
          "reference": "Encounter/2973b002-8bcd-4ac0-9473-8b6f8f31d03d"
        },
        "effectiveDateTime": "2025-10-16",
        "interpretation": [
          {
            "coding": [
              {
                "system": "http://terminology.hl7.org/CodeSystem/v3-ObservationInterpretation",
                "code": "L",
                "display": "Low"
              }
            ],
            "text": "Low"
          }
        ]
      },
      "request": {
        "method": "POST",
        "url": "Observation"
      }
    },
    {
      "fullUrl": "urn:uuid:5025120e-027f-4465-aeb7-3efe7ab08a4c",
      "resource": {
        "resourceType": "List",
        "id": "5025120e-027f-4465-aeb7-3efe7ab08a4c",
        "contained": [
          {
            "resourceType": "FamilyMemberHistory",
            "id": "fmh-1",
            "status": "completed",
            "patient": {
              "reference": "Patient/b92e40c9-5326-482c-8ee7-a1d527e1412d"
            },
            "relationship": {
              "coding": [
                {
                  "system": "http://snomed.info/sct",
                  "code": "72705000",
                  "display": "Mother"
                }
              ]
            },
            "deceasedBoolean": false,
            "condition": [
              {
                "code": {
                  "coding": [
                    {
                      "system": "http://snomed.info/sct",
                      "code": "69896004",
                      "display": "Rheumatoid arthritis"
                    }
                  ]
                }
              }
            ]
          }
        ],
        "status": "current",
        "mode": "snapshot",
        "code": {
          "coding": [
            {
              "system": "http://loinc.org",
              "code": "8670-2",
              "display": "History of family member diseases"
            }
          ]
        },
        "subject": [
          {
            "reference": "Patient/b92e40c9-5326-482c-8ee7-a1d527e1412d"
          }
        ],
        "entry": [
          {
            "item": {
              "reference": "#fmh-1"
            }
          }
        ]
      },
      "request": {
        "method": "POST",
        "url": "FamilyMemberHistory"
      }
    }
  ]
}