{
  "resourceType": "Bundle",
  "type": "transaction",
  "entry": [
    {
      "fullUrl": "urn:uuid:f30c09f0-2af8-4cdf-b44d-13c68a3fb2df",
      "resource": {
        "resourceType": "Patient",
        "id": "f30c09f0-2af8-4cdf-b44d-13c68a3fb2df",
        "name": [
          {
            "family": "Rodriguez",
            "given": [
              "Sofia"
            ]
          }
        ],
        "gender": "female",
        "birthDate": "1987-01-01",
        "address": [
          {}
        ]
      },
      "request": {
        "method": "POST",
        "url": "Patient"
      }
    },
    {
      "fullUrl": "urn:uuid:f0b9151f-5bf8-4447-be7b-7c86ecdd669a",
      "resource": {
        "resourceType": "Encounter",
        "id": "f0b9151f-5bf8-4447-be7b-7c86ecdd669a",
        "identifier": [
          {
            "use": "temp",
            "value": "Encounter_Sofia Rodriguez_20251021093242"
          }
        ],
        "status": "completed",
        "priority": {
          "coding": [
            {
              "system": "http://snomed.info/sct",
              "code": "17621005",
              "display": "Normal"
            }
          ]
        },
        "type": [
          {
            "coding": [
              {
                "system": "http://snomed.info/sct",
                "code": "11429006",
                "display": "Consultation"
              }
            ]
          }
        ],
        "subject": {
          "reference": "Patient/f30c09f0-2af8-4cdf-b44d-13c68a3fb2df",
          "display": "Sofia Rodriguez"
        },
        "reason": [
          {
            "value": [
              {
                "concept": {
                  "text": "complaints of intermittent abdominal pain and occasional diarrhea"
                }
              }
            ]
          }
        ]
      },
      "request": {
        "method": "POST",
        "url": "Encounter"
      }
    },
    {
      "fullUrl": "urn:uuid:5d069614-61c0-4e7d-9918-ca88987502a0",
      "resource": {
        "resourceType": "Observation",
        "id": "5d069614-61c0-4e7d-9918-ca88987502a0",
        "status": "final",
        "category": [
          {
            "coding": [
              {
                "system": "http://terminology.hl7.org/CodeSystem/observation-category",
                "code": "laboratory",
                "display": "Laboratory"
              }
            ],
            "text": "Laboratory"
          }
        ],
        "code": {
          "coding": [
            {
              "system": "http://loinc.org",
              "code": "26464-8",
              "display": "WBC # Bld"
            }
          ],
          "text": "White Blood Cell Count"
        },
        "subject": {
          "reference": "Patient/f30c09f0-2af8-4cdf-b44d-13c68a3fb2df"
        },
        "encounter": {
          "reference": "Encounter/f0b9151f-5bf8-4447-be7b-7c86ecdd669a"
        },
        "effectiveDateTime": "2025-10-16",
        "valueQuantity": {
          "value": 8.5,
          "unit": "x 10^9/L",
          "system": "http://unitsofmeasure.org",
          "code": "x 10^9/L"
        },
        "interpretation": [
          {
            "coding": [
              {
                "system": "http://terminology.hl7.org/CodeSystem/v3-ObservationInterpretation",
                "code": "N",
                "display": "Normal"
              }
            ]
          }
        ],
        "note": [
          {
            "text": "Definition: https://loinc.org/26464-8/"
          }
        ]
      },
      "request": {
        "method": "POST",
        "url": "Observation"
      }
    },
    {
      "fullUrl": "urn:uuid:1a0b3c6d-e00c-4cb8-80ea-e3d19f0048ce",
      "resource": {
        "resourceType": "Observation",
        "id": "1a0b3c6d-e00c-4cb8-80ea-e3d19f0048ce",
        "status": "final",
        "category": [
          {
            "coding": [
              {
                "system": "http://terminology.hl7.org/CodeSystem/observation-category",
                "code": "laboratory",
                "display": "Laboratory"
              }
            ],
            "text": "Laboratory"
          }
        ],
        "code": {
          "coding": [
            {
              "system": "http://loinc.org",
              "code": "62854-5",
              "display": "PhenX - glycosylated hemoglobin assay reflecting long-term glucose concentration protocol 140901"
            }
          ],
          "text": "Hemoglobin"
        },
        "subject": {
          "reference": "Patient/f30c09f0-2af8-4cdf-b44d-13c68a3fb2df"
        },
        "encounter": {
          "reference": "Encounter/f0b9151f-5bf8-4447-be7b-7c86ecdd669a"
        },
        "effectiveDateTime": "2025-10-16",
        "valueQuantity": {
          "value": 13.2,
          "unit": "g/dL",
          "system": "http://unitsofmeasure.org",
          "code": "g/dL"
        },
        "interpretation": [
          {
            "coding": [
              {
                "system": "http://terminology.hl7.org/CodeSystem/v3-ObservationInterpretation",
                "code": "N",
                "display": "Normal"
              }
            ]
          }
        ],
        "note": [
          {
            "text": "Definition: https://loinc.org/62854-5/"
          }
        ]
      },
      "request": {
        "method": "POST",
        "url": "Observation"
      }
    },
    {
      "fullUrl": "urn:uuid:fc87072a-3e33-4508-b481-30b149e73b43",
      "resource": {
        "resourceType": "Observation",
        "id": "fc87072a-3e33-4508-b481-30b149e73b43",
        "status": "final",
        "category": [
          {
            "coding": [
              {
                "system": "http://terminology.hl7.org/CodeSystem/observation-category",
                "code": "laboratory",
                "display": "Laboratory"
              }
            ],
            "text": "Laboratory"
          }
        ],
        "code": {
          "coding": [
            {
              "system": "http://loinc.org",
              "code": "74775-8",
              "display": "Platelet # PRP Auto"
            }
          ],
          "text": "Platelet Count"
        },
        "subject": {
          "reference": "Patient/f30c09f0-2af8-4cdf-b44d-13c68a3fb2df"
        },
        "encounter": {
          "reference": "Encounter/f0b9151f-5bf8-4447-be7b-7c86ecdd669a"
        },
        "effectiveDateTime": "2025-10-16",
        "valueQuantity": {
          "value": 220.0,
          "unit": "x 10^9/L",
          "system": "http://unitsofmeasure.org",
          "code": "x 10^9/L"
        },
        "interpretation": [
          {
            "coding": [
              {
                "system": "http://terminology.hl7.org/CodeSystem/v3-ObservationInterpretation",
                "code": "N",
                "display": "Normal"
              }
            ]
          }
        ],
        "note": [
          {
            "text": "Definition: https://loinc.org/74775-8/"
          }
        ]
      },
      "request": {
        "method": "POST",
        "url": "Observation"
      }
    },
    {
      "fullUrl": "urn:uuid:918661ea-e889-407d-8214-84d1a4e8792f",
      "resource": {
        "resourceType": "Observation",
        "id": "918661ea-e889-407d-8214-84d1a4e8792f",
        "status": "final",
        "category": [
          {
            "coding": [
              {
                "system": "http://terminology.hl7.org/CodeSystem/observation-category",
                "code": "laboratory",
                "display": "Laboratory"
              }
            ],
            "text": "Laboratory"
          }
        ],
        "code": {
          "coding": [
            {
              "system": "http://loinc.org",
              "code": "27187-4",
              "display": "Methohexital Ur-mCnc"
            }
          ],
          "text": "Sodium"
        },
        "subject": {
          "reference": "Patient/f30c09f0-2af8-4cdf-b44d-13c68a3fb2df"
        },
        "encounter": {
          "reference": "Encounter/f0b9151f-5bf8-4447-be7b-7c86ecdd669a"
        },
        "effectiveDateTime": "2025-10-16",
        "valueQuantity": {
          "value": 140.0,
          "unit": "mmol/L",
          "system": "http://unitsofmeasure.org",
          "code": "mmol/L"
        },
        "interpretation": [
          {
            "coding": [
              {
                "system": "http://terminology.hl7.org/CodeSystem/v3-ObservationInterpretation",
                "code": "N",
                "display": "Normal"
              }
            ]
          }
        ],
        "note": [
          {
            "text": "Definition: https://loinc.org/27187-4/"
          }
        ]
      },
      "request": {
        "method": "POST",
        "url": "Observation"
      }
    },
    {
      "fullUrl": "urn:uuid:98ecb697-e9e0-4ab7-b601-4804688d363d",
      "resource": {
        "resourceType": "Observation",
        "id": "98ecb697-e9e0-4ab7-b601-4804688d363d",
        "status": "final",
        "category": [
          {
            "coding": [
              {
                "system": "http://terminology.hl7.org/CodeSystem/observation-category",
                "code": "laboratory",
                "display": "Laboratory"
              }
            ],
            "text": "Laboratory"
          }
        ],
        "code": {
          "coding": [
            {
              "system": "http://loinc.org",
              "code": "2820-9",
              "display": "Potassium Dial fld-sCnc"
            }
          ],
          "text": "Potassium"
        },
        "subject": {
          "reference": "Patient/f30c09f0-2af8-4cdf-b44d-13c68a3fb2df"
        },
        "encounter": {
          "reference": "Encounter/f0b9151f-5bf8-4447-be7b-7c86ecdd669a"
        },
        "effectiveDateTime": "2025-10-16",
        "valueQuantity": {
          "value": 4.2,
          "unit": "mmol/L",
          "system": "http://unitsofmeasure.org",
          "code": "mmol/L"
        },
        "interpretation": [
          {
            "coding": [
              {
                "system": "http://terminology.hl7.org/CodeSystem/v3-ObservationInterpretation",
                "code": "N",
                "display": "Normal"
              }
            ]
          }
        ],
        "note": [
          {
            "text": "Definition: https://loinc.org/2820-9/"
          }
        ]
      },
      "request": {
        "method": "POST",
        "url": "Observation"
      }
    },
    {
      "fullUrl": "urn:uuid:ca44dc4f-7c21-42b0-89ee-6cd900f41e7d",
      "resource": {
        "resourceType": "Observation",
        "id": "ca44dc4f-7c21-42b0-89ee-6cd900f41e7d",
        "status": "final",
        "category": [
          {
            "coding": [
              {
                "system": "http://terminology.hl7.org/CodeSystem/observation-category",
                "code": "laboratory",
                "display": "Laboratory"
              }
            ],
            "text": "Laboratory"
          }
        ],
        "code": {
          "coding": [
            {
              "system": "http://loinc.org",
              "code": "38740-7",
              "display": "DDC Air-mCnc"
            }
          ],
          "text": "Chloride"
        },
        "subject": {
          "reference": "Patient/f30c09f0-2af8-4cdf-b44d-13c68a3fb2df"
        },
        "encounter": {
          "reference": "Encounter/f0b9151f-5bf8-4447-be7b-7c86ecdd669a"
        },
        "effectiveDateTime": "2025-10-16",
        "valueQuantity": {
          "value": 102.0,
          "unit": "mmol/L",
          "system": "http://unitsofmeasure.org",
          "code": "mmol/L"
        },
        "interpretation": [
          {
            "coding": [
              {
                "system": "http://terminology.hl7.org/CodeSystem/v3-ObservationInterpretation",
                "code": "N",
                "display": "Normal"
              }
            ]
          }
        ],
        "note": [
          {
            "text": "Definition: https://loinc.org/38740-7/"
          }
        ]
      },
      "request": {
        "method": "POST",
        "url": "Observation"
      }
    },
    {
      "fullUrl": "urn:uuid:3302cd78-311e-414d-94ea-3ee759557a85",
      "resource": {
        "resourceType": "Observation",
        "id": "3302cd78-311e-414d-94ea-3ee759557a85",
        "status": "final",
        "category": [
          {
            "coding": [
              {
                "system": "http://terminology.hl7.org/CodeSystem/observation-category",
                "code": "exam",
                "display": "Exam"
              }
            ],
            "text": "Exam"
          }
        ],
        "code": {
          "coding": [
            {
              "system": "http://snomed.info/sct",
              "code": "21522001",
              "display": "Abdominal pain"
            }
          ],
          "text": "Abdominal Pain"
        },
        "subject": {
          "reference": "Patient/f30c09f0-2af8-4cdf-b44d-13c68a3fb2df"
        },
        "encounter": {
          "reference": "Encounter/f0b9151f-5bf8-4447-be7b-7c86ecdd669a"
        },
        "effectivePeriod": {
          "start": "2025-10-16"
        },
        "valueBoolean": true,
        "interpretation": [
          {
            "coding": [
              {
                "system": "http://terminology.hl7.org/CodeSystem/v3-ObservationInterpretation",
                "code": "A",
                "display": "Abnormal"
              }
            ],
            "text": "Abnormal"
          }
        ],
        "note": [
          {
            "text": "Definition: https://snomed.info/id/21522001"
          }
        ]
      },
      "request": {
        "method": "POST",
        "url": "Observation"
      }
    },
    {
      "fullUrl": "urn:uuid:0ab3eb94-a21d-4b42-8e18-85459d9ca17a",
      "resource": {
        "resourceType": "Observation",
        "id": "0ab3eb94-a21d-4b42-8e18-85459d9ca17a",
        "status": "final",
        "category": [
          {
            "coding": [
              {
                "system": "http://terminology.hl7.org/CodeSystem/observation-category",
                "code": "exam",
                "display": "Exam"
              }
            ],
            "text": "Exam"
          }
        ],
        "code": {
          "coding": [
            {
              "system": "http://snomed.info/sct",
              "code": "62315008",
              "display": "Diarrhea"
            }
          ],
          "text": "Diarrhea"
        },
        "subject": {
          "reference": "Patient/f30c09f0-2af8-4cdf-b44d-13c68a3fb2df"
        },
        "encounter": {
          "reference": "Encounter/f0b9151f-5bf8-4447-be7b-7c86ecdd669a"
        },
        "effectivePeriod": {
          "start": "2025-10-16"
        },
        "valueBoolean": true,
        "interpretation": [
          {
            "coding": [
              {
                "system": "http://terminology.hl7.org/CodeSystem/v3-ObservationInterpretation",
                "code": "A",
                "display": "Abnormal"
              }
            ],
            "text": "Abnormal"
          }
        ],
        "note": [
          {
            "text": "Definition: https://snomed.info/id/62315008"
          }
        ]
      },
      "request": {
        "method": "POST",
        "url": "Observation"
      }
    },
    {
      "fullUrl": "urn:uuid:31c3c4ba-af0e-42f0-bedf-9bde0a2d22ae",
      "resource": {
        "resourceType": "Observation",
        "id": "31c3c4ba-af0e-42f0-bedf-9bde0a2d22ae",
        "status": "final",
        "category": [
          {
            "coding": [
              {
                "system": "http://terminology.hl7.org/CodeSystem/observation-category",
                "code": "exam",
                "display": "Exam"
              }
            ],
            "text": "Exam"
          }
        ],
        "code": {
          "coding": [
            {
              "system": "http://snomed.info/sct",
              "code": "722879009",
              "display": "Functional bloating"
            }
          ],
          "text": "Bloating"
        },
        "subject": {
          "reference": "Patient/f30c09f0-2af8-4cdf-b44d-13c68a3fb2df"
        },
        "encounter": {
          "reference": "Encounter/f0b9151f-5bf8-4447-be7b-7c86ecdd669a"
        },
        "effectivePeriod": {
          "start": "2025-10-16"
        },
        "valueBoolean": true,
        "interpretation": [
          {
            "coding": [
              {
                "system": "http://terminology.hl7.org/CodeSystem/v3-ObservationInterpretation",
                "code": "A",
                "display": "Abnormal"
              }
            ],
            "text": "Abnormal"
          }
        ],
        "note": [
          {
            "text": "Definition: https://snomed.info/id/722879009"
          }
        ]
      },
      "request": {
        "method": "POST",
        "url": "Observation"
      }
    },
    {
      "fullUrl": "urn:uuid:9893a45f-7b3f-46e2-803d-c66c4d622fe0",
      "resource": {
        "resourceType": "Observation",
        "id": "9893a45f-7b3f-46e2-803d-c66c4d622fe0",
        "status": "final",
        "category": [
          {
            "coding": [
              {
                "system": "http://terminology.hl7.org/CodeSystem/observation-category",
                "code": "vital-signs",
                "display": "Vital Signs"
              }
            ],
            "text": "Vital Signs"
          }
        ],
        "code": {
          "coding": [
            {
              "system": "http://loinc.org",
              "code": "8310-5",
              "display": "Body temperature"
            }
          ],
          "text": "temperature"
        },
        "subject": {
          "reference": "Patient/f30c09f0-2af8-4cdf-b44d-13c68a3fb2df"
        },
        "encounter": {
          "reference": "Encounter/f0b9151f-5bf8-4447-be7b-7c86ecdd669a"
        },
        "effectiveDateTime": "2025-10-16",
        "valueQuantity": {
          "value": 36.8,
          "unit": "°C",
          "system": "http://unitsofmeasure.org",
          "code": "°C"
        },
        "interpretation": [
          {
            "coding": [
              {
                "system": "http://terminology.hl7.org/CodeSystem/v3-ObservationInterpretation",
                "code": "N",
                "display": "Normal"
              }
            ],
            "text": "Normal"
          }
        ]
      },
      "request": {
        "method": "POST",
        "url": "Observation"
      }
    },
    {
      "fullUrl": "urn:uuid:f6d95aa1-8489-4234-9053-dcfe705600c8",
      "resource": {
        "resourceType": "Observation",
        "id": "f6d95aa1-8489-4234-9053-dcfe705600c8",
        "status": "final",
        "category": [
          {
            "coding": [
              {
                "system": "http://terminology.hl7.org/CodeSystem/observation-category",
                "code": "vital-signs",
                "display": "Vital Signs"
              }
            ],
            "text": "Vital Signs"
          }
        ],
        "code": {
          "coding": [
            {
              "system": "http://loinc.org",
              "code": "62733-1",
              "display": "PhenX - respiratory - pulse oximetry - rest protocol 091101"
            }
          ],
          "text": "pulse"
        },
        "subject": {
          "reference": "Patient/f30c09f0-2af8-4cdf-b44d-13c68a3fb2df"
        },
        "encounter": {
          "reference": "Encounter/f0b9151f-5bf8-4447-be7b-7c86ecdd669a"
        },
        "effectiveDateTime": "2025-10-16",
        "valueQuantity": {
          "value": 82.0,
          "unit": "bpm",
          "system": "http://unitsofmeasure.org",
          "code": "bpm"
        },
        "interpretation": [
          {
            "coding": [
              {
                "system": "http://terminology.hl7.org/CodeSystem/v3-ObservationInterpretation",
                "code": "N",
                "display": "Normal"
              }
            ],
            "text": "Normal"
          }
        ]
      },
      "request": {
        "method": "POST",
        "url": "Observation"
      }
    },
    {
      "fullUrl": "urn:uuid:5330a836-5434-43d2-865c-c2fe2bd92102",
      "resource": {
        "resourceType": "Observation",
        "id": "5330a836-5434-43d2-865c-c2fe2bd92102",
        "status": "final",
        "category": [
          {
            "coding": [
              {
                "system": "http://terminology.hl7.org/CodeSystem/observation-category",
                "code": "vital-signs",
                "display": "Vital Signs"
              }
            ],
            "text": "Vital Signs"
          }
        ],
        "code": {
          "coding": [
            {
              "system": "http://loinc.org",
              "code": "18684-1",
              "display": "Blood pressure"
            }
          ],
          "text": "blood pressure"
        },
        "subject": {
          "reference": "Patient/f30c09f0-2af8-4cdf-b44d-13c68a3fb2df"
        },
        "encounter": {
          "reference": "Encounter/f0b9151f-5bf8-4447-be7b-7c86ecdd669a"
        },
        "effectiveDateTime": "2025-10-16",
        "valueQuantity": {
          "value": 128.0,
          "unit": "mmHg",
          "system": "http://unitsofmeasure.org",
          "code": "mmHg"
        },
        "interpretation": [
          {
            "coding": [
              {
                "system": "http://terminology.hl7.org/CodeSystem/v3-ObservationInterpretation",
                "code": "N",
                "display": "Normal"
              }
            ],
            "text": "Normal"
          }
        ]
      },
      "request": {
        "method": "POST",
        "url": "Observation"
      }
    },
    {
      "fullUrl": "urn:uuid:c521b48b-da7f-41c4-b242-514c9320b012",
      "resource": {
        "resourceType": "Observation",
        "id": "c521b48b-da7f-41c4-b242-514c9320b012",
        "status": "final",
        "category": [
          {
            "coding": [
              {
                "system": "http://terminology.hl7.org/CodeSystem/observation-category",
                "code": "vital-signs",
                "display": "Vital Signs"
              }
            ],
            "text": "Vital Signs"
          }
        ],
        "code": {
          "coding": [
            {
              "system": "http://loinc.org",
              "code": "9279-1",
              "display": "Resp rate"
            }
          ],
          "text": "respiratory rate"
        },
        "subject": {
          "reference": "Patient/f30c09f0-2af8-4cdf-b44d-13c68a3fb2df"
        },
        "encounter": {
          "reference": "Encounter/f0b9151f-5bf8-4447-be7b-7c86ecdd669a"
        },
        "effectiveDateTime": "2025-10-16",
        "valueQuantity": {
          "value": 18.0,
          "unit": "breaths per minute",
          "system": "http://unitsofmeasure.org",
          "code": "breaths per minute"
        },
        "interpretation": [
          {
            "coding": [
              {
                "system": "http://terminology.hl7.org/CodeSystem/v3-ObservationInterpretation",
                "code": "N",
                "display": "Normal"
              }
            ],
            "text": "Normal"
          }
        ]
      },
      "request": {
        "method": "POST",
        "url": "Observation"
      }
    },
    {
      "fullUrl": "urn:uuid:eb632363-d7ed-46bd-a33d-14117fa832a0",
      "resource": {
        "resourceType": "Observation",
        "id": "eb632363-d7ed-46bd-a33d-14117fa832a0",
        "status": "final",
        "category": [
          {
            "coding": [
              {
                "system": "http://terminology.hl7.org/CodeSystem/observation-category",
                "code": "vital-signs",
                "display": "Vital Signs"
              }
            ],
            "text": "Vital Signs"
          }
        ],
        "code": {
          "coding": [
            {
              "system": "http://loinc.org",
              "code": "8337-8",
              "display": "Bdy weight special circumstances"
            }
          ],
          "text": "weight"
        },
        "subject": {
          "reference": "Patient/f30c09f0-2af8-4cdf-b44d-13c68a3fb2df"
        },
        "encounter": {
          "reference": "Encounter/f0b9151f-5bf8-4447-be7b-7c86ecdd669a"
        },
        "effectiveDateTime": "2025-10-16",
        "valueQuantity": {
          "value": 58.0,
          "unit": "kg",
          "system": "http://unitsofmeasure.org",
          "code": "kg"
        },
        "interpretation": [
          {
            "coding": [
              {
                "system": "http://terminology.hl7.org/CodeSystem/v3-ObservationInterpretation",
                "code": "N",
                "display": "Normal"
              }
            ],
            "text": "Normal"
          }
        ]
      },
      "request": {
        "method": "POST",
        "url": "Observation"
      }
    },
    {
      "fullUrl": "urn:uuid:25cd6011-6b4f-4684-8a46-387b7425d432",
      "resource": {
        "resourceType": "Observation",
        "id": "25cd6011-6b4f-4684-8a46-387b7425d432",
        "status": "final",
        "category": [
          {
            "coding": [
              {
                "system": "http://terminology.hl7.org/CodeSystem/observation-category",
                "code": "vital-signs",
                "display": "Vital Signs"
              }
            ],
            "text": "Vital Signs"
          }
        ],
        "code": {
          "coding": [
            {
              "system": "http://loinc.org",
              "code": "92998-4",
              "display": "Lower segment"
            }
          ],
          "text": "height"
        },
        "subject": {
          "reference": "Patient/f30c09f0-2af8-4cdf-b44d-13c68a3fb2df"
        },
        "encounter": {
          "reference": "Encounter/f0b9151f-5bf8-4447-be7b-7c86ecdd669a"
        },
        "effectiveDateTime": "2025-10-16",
        "valueQuantity": {
          "value": 165.0,
          "unit": "cm",
          "system": "http://unitsofmeasure.org",
          "code": "cm"
        },
        "interpretation": [
          {
            "coding": [
              {
                "system": "http://terminology.hl7.org/CodeSystem/v3-ObservationInterpretation",
                "code": "N",
                "display": "Normal"
              }
            ],
            "text": "Normal"
          }
        ]
      },
      "request": {
        "method": "POST",
        "url": "Observation"
      }
    },
    {
      "fullUrl": "urn:uuid:3580e89b-d00f-46b1-837c-8c5ae12d80b2",
      "resource": {
        "resourceType": "Observation",
        "id": "3580e89b-d00f-46b1-837c-8c5ae12d80b2",
        "status": "final",
        "category": [
          {
            "coding": [
              {
                "system": "http://terminology.hl7.org/CodeSystem/observation-category",
                "code": "vital-signs",
                "display": "Vital Signs"
              }
            ],
            "text": "Vital Signs"
          }
        ],
        "code": {
          "coding": [
            {
              "system": "http://loinc.org",
              "code": "107102-6",
              "display": "BMI formula"
            }
          ],
          "text": "BMI"
        },
        "subject": {
          "reference": "Patient/f30c09f0-2af8-4cdf-b44d-13c68a3fb2df"
        },
        "encounter": {
          "reference": "Encounter/f0b9151f-5bf8-4447-be7b-7c86ecdd669a"
        },
        "effectiveDateTime": "2025-10-16",
        "valueQuantity": {
          "value": 21.3,
          "unit": "kg/m²",
          "system": "http://unitsofmeasure.org",
          "code": "kg/m²"
        },
        "interpretation": [
          {
            "coding": [
              {
                "system": "http://terminology.hl7.org/CodeSystem/v3-ObservationInterpretation",
                "code": "N",
                "display": "Normal"
              }
            ],
            "text": "Normal"
          }
        ]
      },
      "request": {
        "method": "POST",
        "url": "Observation"
      }
    },
    {
      "fullUrl": "urn:uuid:514d74d1-3329-4af0-9c3f-02acdf90158a",
      "resource": {
        "resourceType": "Observation",
        "id": "514d74d1-3329-4af0-9c3f-02acdf90158a",
        "status": "final",
        "category": [
          {
            "coding": [
              {
                "system": "http://terminology.hl7.org/CodeSystem/observation-category",
                "code": "vital-signs",
                "display": "Vital Signs"
              }
            ],
            "text": "Vital Signs"
          }
        ],
        "code": {
          "coding": [
            {
              "system": "http://loinc.org",
              "code": "2717-7",
              "display": "OxyHgb MFr Plas"
            }
          ],
          "text": "oxygen saturation"
        },
        "subject": {
          "reference": "Patient/f30c09f0-2af8-4cdf-b44d-13c68a3fb2df"
        },
        "encounter": {
          "reference": "Encounter/f0b9151f-5bf8-4447-be7b-7c86ecdd669a"
        },
        "effectiveDateTime": "2025-10-16",
        "valueQuantity": {
          "value": 98.0,
          "unit": "%",
          "system": "http://unitsofmeasure.org",
          "code": "%"
        },
        "interpretation": [
          {
            "coding": [
              {
                "system": "http://terminology.hl7.org/CodeSystem/v3-ObservationInterpretation",
                "code": "N",
                "display": "Normal"
              }
            ],
            "text": "Normal"
          }
        ]
      },
      "request": {
        "method": "POST",
        "url": "Observation"
      }
    },
    {
      "fullUrl": "urn:uuid:5f6cf7de-bc3d-488a-a456-424c25321886",
      "resource": {
        "resourceType": "List",
        "id": "5f6cf7de-bc3d-488a-a456-424c25321886",
        "contained": [
          {
            "resourceType": "FamilyMemberHistory",
            "id": "fmh-2",
            "status": "completed",
            "patient": {
              "reference": "Patient/f30c09f0-2af8-4cdf-b44d-13c68a3fb2df"
            },
            "relationship": {
              "coding": [
                {
                  "system": "http://snomed.info/sct",
                  "code": "66839005",
                  "display": "Father"
                }
              ]
            },
            "deceasedBoolean": false,
            "condition": [
              {
                "code": {
                  "coding": [
                    {
                      "system": "http://snomed.info/sct",
                      "code": "38341003",
                      "display": "Hypertensive disorder"
                    }
                  ]
                }
              }
            ]
          }
        ],
        "status": "current",
        "mode": "snapshot",
        "code": {
          "coding": [
            {
              "system": "http://loinc.org",
              "code": "8670-2",
              "display": "History of family member diseases"
            }
          ]
        },
        "subject": [
          {
            "reference": "Patient/f30c09f0-2af8-4cdf-b44d-13c68a3fb2df"
          }
        ],
        "entry": [
          {
            "item": {
              "reference": "#fmh-2"
            }
          }
        ]
      },
      "request": {
        "method": "POST",
        "url": "FamilyMemberHistory"
      }
    }
  ]
}