{
  "resourceType": "Bundle",
  "type": "transaction",
  "entry": [
    {
      "fullUrl": "urn:uuid:993e7a76-7659-4439-bf13-5ae865d73e50",
      "resource": {
        "resourceType": "Patient",
        "id": "993e7a76-7659-4439-bf13-5ae865d73e50",
        "name": [
          {
            "family": "Kuznetsova",
            "given": [
              "Alina"
            ]
          }
        ],
        "gender": "female",
        "birthDate": "2006-01-01",
        "address": [
          {}
        ]
      },
      "request": {
        "method": "POST",
        "url": "Patient"
      }
    },
    {
      "fullUrl": "urn:uuid:0b339dc7-25e1-4010-88ff-9d484263efda",
      "resource": {
        "resourceType": "Encounter",
        "id": "0b339dc7-25e1-4010-88ff-9d484263efda",
        "identifier": [
          {
            "use": "temp",
            "value": "Encounter_Alina Kuznetsova_20251023103346"
          }
        ],
        "status": "completed",
        "priority": {
          "coding": [
            {
              "system": "http://snomed.info/sct",
              "code": "17621005",
              "display": "Normal"
            }
          ]
        },
        "type": [
          {
            "coding": [
              {
                "system": "http://snomed.info/sct",
                "code": "11429006",
                "display": "Consultation"
              }
            ]
          }
        ],
        "subject": {
          "reference": "Patient/993e7a76-7659-4439-bf13-5ae865d73e50",
          "display": "Alina Kuznetsova"
        },
        "reason": [
          {
            "value": [
              {
                "concept": {
                  "text": "recent episodes of hand clumsiness and increased irritability"
                }
              }
            ]
          }
        ]
      },
      "request": {
        "method": "POST",
        "url": "Encounter"
      }
    },
    {
      "fullUrl": "urn:uuid:06eb3ea5-dd2e-40b2-b7f8-f8fa8a3ff046",
      "resource": {
        "resourceType": "Observation",
        "id": "06eb3ea5-dd2e-40b2-b7f8-f8fa8a3ff046",
        "status": "final",
        "category": [
          {
            "coding": [
              {
                "system": "http://terminology.hl7.org/CodeSystem/observation-category",
                "code": "laboratory",
                "display": "Laboratory"
              }
            ],
            "text": "Laboratory"
          }
        ],
        "code": {
          "coding": [
            {
              "system": "http://loinc.org",
              "code": "48134-1",
              "display": "ALT Macro SerPl-cCnc"
            }
          ],
          "text": "Serum ALT"
        },
        "subject": {
          "reference": "Patient/993e7a76-7659-4439-bf13-5ae865d73e50"
        },
        "encounter": {
          "reference": "Encounter/0b339dc7-25e1-4010-88ff-9d484263efda"
        },
        "effectiveDateTime": "2025-10-16",
        "valueQuantity": {
          "value": 92.0,
          "unit": "U/L",
          "system": "http://unitsofmeasure.org",
          "code": "U/L"
        },
        "interpretation": [
          {
            "coding": [
              {
                "system": "http://terminology.hl7.org/CodeSystem/v3-ObservationInterpretation",
                "code": "H",
                "display": "High"
              }
            ]
          }
        ],
        "note": [
          {
            "text": "Definition: https://loinc.org/48134-1/"
          }
        ]
      },
      "request": {
        "method": "POST",
        "url": "Observation"
      }
    },
    {
      "fullUrl": "urn:uuid:b11e8926-4d47-498c-b686-a3bdb3f383be",
      "resource": {
        "resourceType": "Observation",
        "id": "b11e8926-4d47-498c-b686-a3bdb3f383be",
        "status": "final",
        "category": [
          {
            "coding": [
              {
                "system": "http://terminology.hl7.org/CodeSystem/observation-category",
                "code": "laboratory",
                "display": "Laboratory"
              }
            ],
            "text": "Laboratory"
          }
        ],
        "code": {
          "coding": [
            {
              "system": "http://loinc.org",
              "code": "86465-2",
              "display": "APRI Ser+Bld Calc-Rto"
            }
          ],
          "text": "Serum AST"
        },
        "subject": {
          "reference": "Patient/993e7a76-7659-4439-bf13-5ae865d73e50"
        },
        "encounter": {
          "reference": "Encounter/0b339dc7-25e1-4010-88ff-9d484263efda"
        },
        "effectiveDateTime": "2025-10-16",
        "valueQuantity": {
          "value": 85.0,
          "unit": "U/L",
          "system": "http://unitsofmeasure.org",
          "code": "U/L"
        },
        "interpretation": [
          {
            "coding": [
              {
                "system": "http://terminology.hl7.org/CodeSystem/v3-ObservationInterpretation",
                "code": "H",
                "display": "High"
              }
            ]
          }
        ],
        "note": [
          {
            "text": "Definition: https://loinc.org/86465-2/"
          }
        ]
      },
      "request": {
        "method": "POST",
        "url": "Observation"
      }
    },
    {
      "fullUrl": "urn:uuid:d1dca78f-600c-4725-a5e7-6671bc64f9f5",
      "resource": {
        "resourceType": "Observation",
        "id": "d1dca78f-600c-4725-a5e7-6671bc64f9f5",
        "status": "final",
        "category": [
          {
            "coding": [
              {
                "system": "http://terminology.hl7.org/CodeSystem/observation-category",
                "code": "laboratory",
                "display": "Laboratory"
              }
            ],
            "text": "Laboratory"
          }
        ],
        "code": {
          "coding": [
            {
              "system": "http://loinc.org",
              "code": "34543-9",
              "display": "Bilirubin direct & total panel"
            }
          ],
          "text": "Total Bilirubin"
        },
        "subject": {
          "reference": "Patient/993e7a76-7659-4439-bf13-5ae865d73e50"
        },
        "encounter": {
          "reference": "Encounter/0b339dc7-25e1-4010-88ff-9d484263efda"
        },
        "effectiveDateTime": "2025-10-16",
        "valueQuantity": {
          "value": 1.6,
          "unit": "mg/dL",
          "system": "http://unitsofmeasure.org",
          "code": "mg/dL"
        },
        "note": [
          {
            "text": "Definition: https://loinc.org/34543-9/"
          }
        ]
      },
      "request": {
        "method": "POST",
        "url": "Observation"
      }
    },
    {
      "fullUrl": "urn:uuid:2f02273b-3926-4273-b3b1-e44b1a09c483",
      "resource": {
        "resourceType": "Observation",
        "id": "2f02273b-3926-4273-b3b1-e44b1a09c483",
        "status": "final",
        "category": [
          {
            "coding": [
              {
                "system": "http://terminology.hl7.org/CodeSystem/observation-category",
                "code": "laboratory",
                "display": "Laboratory"
              }
            ],
            "text": "Laboratory"
          }
        ],
        "code": {
          "coding": [
            {
              "system": "http://loinc.org",
              "code": "2064-4",
              "display": "Ceruloplasmin SerPl-mCnc"
            }
          ],
          "text": "Serum Ceruloplasmin"
        },
        "subject": {
          "reference": "Patient/993e7a76-7659-4439-bf13-5ae865d73e50"
        },
        "encounter": {
          "reference": "Encounter/0b339dc7-25e1-4010-88ff-9d484263efda"
        },
        "effectiveDateTime": "2025-10-16",
        "valueQuantity": {
          "value": 0.14,
          "unit": "g/L",
          "system": "http://unitsofmeasure.org",
          "code": "g/L"
        },
        "interpretation": [
          {
            "coding": [
              {
                "system": "http://terminology.hl7.org/CodeSystem/v3-ObservationInterpretation",
                "code": "L",
                "display": "Low"
              }
            ]
          }
        ],
        "note": [
          {
            "text": "Definition: https://loinc.org/2064-4/"
          }
        ]
      },
      "request": {
        "method": "POST",
        "url": "Observation"
      }
    },
    {
      "fullUrl": "urn:uuid:a4fb3c5e-8d75-4496-ba0e-11ec9537317c",
      "resource": {
        "resourceType": "Observation",
        "id": "a4fb3c5e-8d75-4496-ba0e-11ec9537317c",
        "status": "final",
        "category": [
          {
            "coding": [
              {
                "system": "http://terminology.hl7.org/CodeSystem/observation-category",
                "code": "laboratory",
                "display": "Laboratory"
              }
            ],
            "text": "Laboratory"
          }
        ],
        "code": {
          "coding": [
            {
              "system": "http://loinc.org",
              "code": "unknown",
              "display": "Urinary Copper Excretion"
            }
          ],
          "text": "Urinary Copper Excretion"
        },
        "subject": {
          "reference": "Patient/993e7a76-7659-4439-bf13-5ae865d73e50"
        },
        "encounter": {
          "reference": "Encounter/0b339dc7-25e1-4010-88ff-9d484263efda"
        },
        "effectiveDateTime": "2025-10-16",
        "interpretation": [
          {
            "coding": [
              {
                "system": "http://terminology.hl7.org/CodeSystem/v3-ObservationInterpretation",
                "code": "H",
                "display": "High"
              }
            ]
          }
        ]
      },
      "request": {
        "method": "POST",
        "url": "Observation"
      }
    },
    {
      "fullUrl": "urn:uuid:f39dd3f2-8e90-44ab-9a2e-1f758dcdf179",
      "resource": {
        "resourceType": "Observation",
        "id": "f39dd3f2-8e90-44ab-9a2e-1f758dcdf179",
        "status": "final",
        "category": [
          {
            "coding": [
              {
                "system": "http://terminology.hl7.org/CodeSystem/observation-category",
                "code": "exam",
                "display": "Exam"
              }
            ],
            "text": "Exam"
          }
        ],
        "code": {
          "coding": [
            {
              "system": "http://snomed.info/sct",
              "code": "7006003",
              "display": "Clumsiness"
            }
          ],
          "text": "Hand Clumsiness"
        },
        "subject": {
          "reference": "Patient/993e7a76-7659-4439-bf13-5ae865d73e50"
        },
        "encounter": {
          "reference": "Encounter/0b339dc7-25e1-4010-88ff-9d484263efda"
        },
        "effectivePeriod": {
          "start": "2025-10-16"
        },
        "valueBoolean": true,
        "note": [
          {
            "text": "Definition: https://snomed.info/id/7006003"
          }
        ]
      },
      "request": {
        "method": "POST",
        "url": "Observation"
      }
    },
    {
      "fullUrl": "urn:uuid:d62c512c-5b45-4c73-8212-7c488fd9bef7",
      "resource": {
        "resourceType": "Observation",
        "id": "d62c512c-5b45-4c73-8212-7c488fd9bef7",
        "status": "final",
        "category": [
          {
            "coding": [
              {
                "system": "http://terminology.hl7.org/CodeSystem/observation-category",
                "code": "exam",
                "display": "Exam"
              }
            ],
            "text": "Exam"
          }
        ],
        "code": {
          "coding": [
            {
              "system": "http://snomed.info/sct",
              "code": "271697007",
              "display": "Muscle irritability"
            }
          ],
          "text": "Irritability"
        },
        "subject": {
          "reference": "Patient/993e7a76-7659-4439-bf13-5ae865d73e50"
        },
        "encounter": {
          "reference": "Encounter/0b339dc7-25e1-4010-88ff-9d484263efda"
        },
        "effectivePeriod": {
          "start": "2025-10-16"
        },
        "valueBoolean": true,
        "note": [
          {
            "text": "Definition: https://snomed.info/id/271697007"
          }
        ]
      },
      "request": {
        "method": "POST",
        "url": "Observation"
      }
    },
    {
      "fullUrl": "urn:uuid:900f418f-83bd-4f30-a31a-dd20b21603bc",
      "resource": {
        "resourceType": "Observation",
        "id": "900f418f-83bd-4f30-a31a-dd20b21603bc",
        "status": "final",
        "category": [
          {
            "coding": [
              {
                "system": "http://terminology.hl7.org/CodeSystem/observation-category",
                "code": "exam",
                "display": "Exam"
              }
            ],
            "text": "Exam"
          }
        ],
        "code": {
          "coding": [
            {
              "system": "http://snomed.info/sct",
              "code": "397310001",
              "display": "Contact lens tint"
            }
          ],
          "text": "Yellowish Tint to Eyes"
        },
        "subject": {
          "reference": "Patient/993e7a76-7659-4439-bf13-5ae865d73e50"
        },
        "encounter": {
          "reference": "Encounter/0b339dc7-25e1-4010-88ff-9d484263efda"
        },
        "effectivePeriod": {
          "start": "2025-10-16"
        },
        "valueBoolean": true,
        "note": [
          {
            "text": "Definition: https://snomed.info/id/397310001"
          }
        ]
      },
      "request": {
        "method": "POST",
        "url": "Observation"
      }
    },
    {
      "fullUrl": "urn:uuid:d0dd2532-2ed5-44ae-8193-406980f9fdac",
      "resource": {
        "resourceType": "Observation",
        "id": "d0dd2532-2ed5-44ae-8193-406980f9fdac",
        "status": "final",
        "category": [
          {
            "coding": [
              {
                "system": "http://terminology.hl7.org/CodeSystem/observation-category",
                "code": "vital-signs",
                "display": "Vital Signs"
              }
            ],
            "text": "Vital Signs"
          }
        ],
        "code": {
          "coding": [
            {
              "system": "http://loinc.org",
              "code": "18684-1",
              "display": "Blood pressure"
            }
          ],
          "text": "Blood Pressure"
        },
        "subject": {
          "reference": "Patient/993e7a76-7659-4439-bf13-5ae865d73e50"
        },
        "encounter": {
          "reference": "Encounter/0b339dc7-25e1-4010-88ff-9d484263efda"
        },
        "effectiveDateTime": "2025-10-16",
        "valueQuantity": {
          "value": 110.0,
          "unit": "mmHg",
          "system": "http://unitsofmeasure.org",
          "code": "mmHg"
        },
        "interpretation": [
          {
            "coding": [
              {
                "system": "http://terminology.hl7.org/CodeSystem/v3-ObservationInterpretation",
                "code": "N",
                "display": "Normal"
              }
            ],
            "text": "Normal"
          }
        ]
      },
      "request": {
        "method": "POST",
        "url": "Observation"
      }
    },
    {
      "fullUrl": "urn:uuid:876022a3-c034-48b4-a634-7b6d21a0cd7f",
      "resource": {
        "resourceType": "Observation",
        "id": "876022a3-c034-48b4-a634-7b6d21a0cd7f",
        "status": "final",
        "category": [
          {
            "coding": [
              {
                "system": "http://terminology.hl7.org/CodeSystem/observation-category",
                "code": "vital-signs",
                "display": "Vital Signs"
              }
            ],
            "text": "Vital Signs"
          }
        ],
        "code": {
          "coding": [
            {
              "system": "http://loinc.org",
              "code": "62733-1",
              "display": "PhenX - respiratory - pulse oximetry - rest protocol 091101"
            }
          ],
          "text": "Pulse"
        },
        "subject": {
          "reference": "Patient/993e7a76-7659-4439-bf13-5ae865d73e50"
        },
        "encounter": {
          "reference": "Encounter/0b339dc7-25e1-4010-88ff-9d484263efda"
        },
        "effectiveDateTime": "2025-10-16",
        "valueQuantity": {
          "value": 74.0,
          "unit": "bpm",
          "system": "http://unitsofmeasure.org",
          "code": "bpm"
        },
        "interpretation": [
          {
            "coding": [
              {
                "system": "http://terminology.hl7.org/CodeSystem/v3-ObservationInterpretation",
                "code": "N",
                "display": "Normal"
              }
            ],
            "text": "Normal"
          }
        ]
      },
      "request": {
        "method": "POST",
        "url": "Observation"
      }
    }
  ]
}