{
  "resourceType": "Bundle",
  "type": "transaction",
  "entry": [
    {
      "fullUrl": "urn:uuid:e7f97332-974d-42ca-9b0c-2a6c741dafd6",
      "resource": {
        "resourceType": "Patient",
        "id": "e7f97332-974d-42ca-9b0c-2a6c741dafd6",
        "name": [
          {
            "family": "Petrov",
            "given": [
              "Nikita"
            ]
          }
        ],
        "gender": "male",
        "birthDate": "2003-07-04",
        "address": [
          {}
        ]
      },
      "request": {
        "method": "POST",
        "url": "Patient"
      }
    },
    {
      "fullUrl": "urn:uuid:4a3726f2-bb8a-49d8-828d-76fd6616c6a0",
      "resource": {
        "resourceType": "Encounter",
        "id": "4a3726f2-bb8a-49d8-828d-76fd6616c6a0",
        "identifier": [
          {
            "use": "temp",
            "value": "Encounter_Nikita Petrov_20251023103329"
          }
        ],
        "status": "completed",
        "priority": {
          "coding": [
            {
              "system": "http://snomed.info/sct",
              "code": "17621005",
              "display": "Normal"
            }
          ]
        },
        "type": [
          {
            "coding": [
              {
                "system": "http://snomed.info/sct",
                "code": "11429006",
                "display": "Consultation"
              }
            ]
          }
        ],
        "subject": {
          "reference": "Patient/e7f97332-974d-42ca-9b0c-2a6c741dafd6",
          "display": "Nikita Petrov"
        },
        "reason": [
          {
            "value": [
              {
                "concept": {
                  "text": "fatigue, mild tremor of the hands, and occasional mood swings"
                }
              }
            ]
          }
        ]
      },
      "request": {
        "method": "POST",
        "url": "Encounter"
      }
    },
    {
      "fullUrl": "urn:uuid:5220c9ec-5efe-4dbc-8823-73342d70eab1",
      "resource": {
        "resourceType": "Observation",
        "id": "5220c9ec-5efe-4dbc-8823-73342d70eab1",
        "status": "final",
        "category": [
          {
            "coding": [
              {
                "system": "http://terminology.hl7.org/CodeSystem/observation-category",
                "code": "laboratory",
                "display": "Laboratory"
              }
            ],
            "text": "Laboratory"
          }
        ],
        "code": {
          "coding": [
            {
              "system": "http://loinc.org",
              "code": "69478-6",
              "display": "AGXT gene Del+Dup Bld/T MLPA"
            }
          ],
          "text": "Alanine Aminotransferase"
        },
        "subject": {
          "reference": "Patient/e7f97332-974d-42ca-9b0c-2a6c741dafd6"
        },
        "encounter": {
          "reference": "Encounter/4a3726f2-bb8a-49d8-828d-76fd6616c6a0"
        },
        "effectiveDateTime": "2025-10-16",
        "valueQuantity": {
          "value": 78.0,
          "unit": "U/L",
          "system": "http://unitsofmeasure.org",
          "code": "U/L"
        },
        "interpretation": [
          {
            "coding": [
              {
                "system": "http://terminology.hl7.org/CodeSystem/v3-ObservationInterpretation",
                "code": "H",
                "display": "High"
              }
            ]
          }
        ],
        "note": [
          {
            "text": "Definition: https://loinc.org/69478-6/"
          }
        ]
      },
      "request": {
        "method": "POST",
        "url": "Observation"
      }
    },
    {
      "fullUrl": "urn:uuid:680f09f7-e7e6-411d-9ef7-49d4456d69d0",
      "resource": {
        "resourceType": "Observation",
        "id": "680f09f7-e7e6-411d-9ef7-49d4456d69d0",
        "status": "final",
        "category": [
          {
            "coding": [
              {
                "system": "http://terminology.hl7.org/CodeSystem/observation-category",
                "code": "laboratory",
                "display": "Laboratory"
              }
            ],
            "text": "Laboratory"
          }
        ],
        "code": {
          "coding": [
            {
              "system": "http://loinc.org",
              "code": "1917-4",
              "display": "AST Amn-cCnc"
            }
          ],
          "text": "Aspartate Aminotransferase"
        },
        "subject": {
          "reference": "Patient/e7f97332-974d-42ca-9b0c-2a6c741dafd6"
        },
        "encounter": {
          "reference": "Encounter/4a3726f2-bb8a-49d8-828d-76fd6616c6a0"
        },
        "effectiveDateTime": "2025-10-16",
        "valueQuantity": {
          "value": 64.0,
          "unit": "U/L",
          "system": "http://unitsofmeasure.org",
          "code": "U/L"
        },
        "interpretation": [
          {
            "coding": [
              {
                "system": "http://terminology.hl7.org/CodeSystem/v3-ObservationInterpretation",
                "code": "H",
                "display": "High"
              }
            ]
          }
        ],
        "note": [
          {
            "text": "Definition: https://loinc.org/1917-4/"
          }
        ]
      },
      "request": {
        "method": "POST",
        "url": "Observation"
      }
    },
    {
      "fullUrl": "urn:uuid:654b67e1-5faf-4b77-b0ba-695e0f48401d",
      "resource": {
        "resourceType": "Observation",
        "id": "654b67e1-5faf-4b77-b0ba-695e0f48401d",
        "status": "final",
        "category": [
          {
            "coding": [
              {
                "system": "http://terminology.hl7.org/CodeSystem/observation-category",
                "code": "laboratory",
                "display": "Laboratory"
              }
            ],
            "text": "Laboratory"
          }
        ],
        "code": {
          "coding": [
            {
              "system": "http://loinc.org",
              "code": "34543-9",
              "display": "Bilirubin direct & total panel"
            }
          ],
          "text": "Total Bilirubin"
        },
        "subject": {
          "reference": "Patient/e7f97332-974d-42ca-9b0c-2a6c741dafd6"
        },
        "encounter": {
          "reference": "Encounter/4a3726f2-bb8a-49d8-828d-76fd6616c6a0"
        },
        "effectiveDateTime": "2025-10-16",
        "valueQuantity": {
          "value": 1.3,
          "unit": "mg/dL",
          "system": "http://unitsofmeasure.org",
          "code": "mg/dL"
        },
        "interpretation": [
          {
            "coding": [
              {
                "system": "http://terminology.hl7.org/CodeSystem/v3-ObservationInterpretation",
                "code": "N",
                "display": "Normal"
              }
            ]
          }
        ],
        "note": [
          {
            "text": "Definition: https://loinc.org/34543-9/"
          }
        ]
      },
      "request": {
        "method": "POST",
        "url": "Observation"
      }
    },
    {
      "fullUrl": "urn:uuid:c464722c-d266-4c69-9e0f-e7969715b867",
      "resource": {
        "resourceType": "Observation",
        "id": "c464722c-d266-4c69-9e0f-e7969715b867",
        "status": "final",
        "category": [
          {
            "coding": [
              {
                "system": "http://terminology.hl7.org/CodeSystem/observation-category",
                "code": "laboratory",
                "display": "Laboratory"
              }
            ],
            "text": "Laboratory"
          }
        ],
        "code": {
          "coding": [
            {
              "system": "http://loinc.org",
              "code": "102090-8",
              "display": "Ceruloplasmin 24h Ur-mCnc"
            }
          ],
          "text": "Ceruloplasmin"
        },
        "subject": {
          "reference": "Patient/e7f97332-974d-42ca-9b0c-2a6c741dafd6"
        },
        "encounter": {
          "reference": "Encounter/4a3726f2-bb8a-49d8-828d-76fd6616c6a0"
        },
        "effectiveDateTime": "2025-10-16",
        "valueQuantity": {
          "value": 0.16,
          "unit": "g/L",
          "system": "http://unitsofmeasure.org",
          "code": "g/L"
        },
        "interpretation": [
          {
            "coding": [
              {
                "system": "http://terminology.hl7.org/CodeSystem/v3-ObservationInterpretation",
                "code": "L",
                "display": "Low"
              }
            ]
          }
        ],
        "note": [
          {
            "text": "Definition: https://loinc.org/102090-8/"
          }
        ]
      },
      "request": {
        "method": "POST",
        "url": "Observation"
      }
    },
    {
      "fullUrl": "urn:uuid:1405a841-9006-4a07-8b31-c4532839ba90",
      "resource": {
        "resourceType": "Observation",
        "id": "1405a841-9006-4a07-8b31-c4532839ba90",
        "status": "final",
        "category": [
          {
            "coding": [
              {
                "system": "http://terminology.hl7.org/CodeSystem/observation-category",
                "code": "exam",
                "display": "Exam"
              }
            ],
            "text": "Exam"
          }
        ],
        "code": {
          "coding": [
            {
              "system": "http://snomed.info/sct",
              "code": "84229001",
              "display": "Fatigue"
            }
          ],
          "text": "Fatigue"
        },
        "subject": {
          "reference": "Patient/e7f97332-974d-42ca-9b0c-2a6c741dafd6"
        },
        "encounter": {
          "reference": "Encounter/4a3726f2-bb8a-49d8-828d-76fd6616c6a0"
        },
        "effectivePeriod": {
          "start": "2025-10-16"
        },
        "valueBoolean": true,
        "note": [
          {
            "text": "Definition: https://snomed.info/id/84229001"
          }
        ]
      },
      "request": {
        "method": "POST",
        "url": "Observation"
      }
    },
    {
      "fullUrl": "urn:uuid:a4ac6599-3a38-4b6f-8b60-2eb6a27e79ae",
      "resource": {
        "resourceType": "Observation",
        "id": "a4ac6599-3a38-4b6f-8b60-2eb6a27e79ae",
        "status": "final",
        "category": [
          {
            "coding": [
              {
                "system": "http://terminology.hl7.org/CodeSystem/observation-category",
                "code": "exam",
                "display": "Exam"
              }
            ],
            "text": "Exam"
          }
        ],
        "code": {
          "coding": [
            {
              "system": "http://snomed.info/sct",
              "code": "26079004",
              "display": "Tremor"
            }
          ],
          "text": "Tremor"
        },
        "subject": {
          "reference": "Patient/e7f97332-974d-42ca-9b0c-2a6c741dafd6"
        },
        "encounter": {
          "reference": "Encounter/4a3726f2-bb8a-49d8-828d-76fd6616c6a0"
        },
        "effectivePeriod": {
          "start": "2025-10-16"
        },
        "valueBoolean": true,
        "note": [
          {
            "text": "Definition: https://snomed.info/id/26079004"
          }
        ]
      },
      "request": {
        "method": "POST",
        "url": "Observation"
      }
    },
    {
      "fullUrl": "urn:uuid:1be09b25-a404-44a7-9977-8d672087e6a6",
      "resource": {
        "resourceType": "Observation",
        "id": "1be09b25-a404-44a7-9977-8d672087e6a6",
        "status": "final",
        "category": [
          {
            "coding": [
              {
                "system": "http://terminology.hl7.org/CodeSystem/observation-category",
                "code": "exam",
                "display": "Exam"
              }
            ],
            "text": "Exam"
          }
        ],
        "code": {
          "coding": [
            {
              "system": "http://snomed.info/sct",
              "code": "18963009",
              "display": "Mood swings"
            }
          ],
          "text": "Mood swings"
        },
        "subject": {
          "reference": "Patient/e7f97332-974d-42ca-9b0c-2a6c741dafd6"
        },
        "encounter": {
          "reference": "Encounter/4a3726f2-bb8a-49d8-828d-76fd6616c6a0"
        },
        "effectivePeriod": {
          "start": "2025-10-16"
        },
        "valueBoolean": true,
        "note": [
          {
            "text": "Definition: https://snomed.info/id/18963009"
          }
        ]
      },
      "request": {
        "method": "POST",
        "url": "Observation"
      }
    },
    {
      "fullUrl": "urn:uuid:872b12df-7e4c-4b50-91c0-cfe063960e91",
      "resource": {
        "resourceType": "List",
        "id": "872b12df-7e4c-4b50-91c0-cfe063960e91",
        "contained": [
          {
            "resourceType": "FamilyMemberHistory",
            "id": "fmh-3",
            "status": "completed",
            "patient": {
              "reference": "Patient/e7f97332-974d-42ca-9b0c-2a6c741dafd6"
            },
            "relationship": {
              "coding": [
                {
                  "system": "http://snomed.info/sct",
                  "code": "27733009",
                  "display": "Sister"
                }
              ]
            },
            "deceasedBoolean": false,
            "condition": [
              {
                "code": {
                  "coding": [
                    {
                      "system": "http://snomed.info/sct",
                      "code": "16740451000119109",
                      "display": "Postpartum hemolysis-elevated liver enzymes-low platelet count syndrome"
                    }
                  ]
                }
              }
            ]
          }
        ],
        "status": "current",
        "mode": "snapshot",
        "code": {
          "coding": [
            {
              "system": "http://loinc.org",
              "code": "8670-2",
              "display": "History of family member diseases"
            }
          ]
        },
        "subject": [
          {
            "reference": "Patient/e7f97332-974d-42ca-9b0c-2a6c741dafd6"
          }
        ],
        "entry": [
          {
            "item": {
              "reference": "#fmh-3"
            }
          }
        ]
      },
      "request": {
        "method": "POST",
        "url": "FamilyMemberHistory"
      }
    }
  ]
}