{
  "resourceType": "Bundle",
  "type": "transaction",
  "entry": [
    {
      "fullUrl": "urn:uuid:ff50f13f-3fc1-4ffe-b54f-6c0c3cb0a3f3",
      "resource": {
        "resourceType": "Patient",
        "id": "ff50f13f-3fc1-4ffe-b54f-6c0c3cb0a3f3",
        "name": [
          {
            "family": "Antonova",
            "given": [
              "Yulia"
            ]
          }
        ],
        "gender": "female",
        "birthDate": "1996-01-01",
        "address": [
          {}
        ]
      },
      "request": {
        "method": "POST",
        "url": "Patient"
      }
    },
    {
      "fullUrl": "urn:uuid:764d5543-91b7-4524-a282-ad69739fef7d",
      "resource": {
        "resourceType": "Encounter",
        "id": "764d5543-91b7-4524-a282-ad69739fef7d",
        "identifier": [
          {
            "use": "temp",
            "value": "Encounter_Yulia Antonova_20251023103630"
          }
        ],
        "status": "completed",
        "priority": {
          "coding": [
            {
              "system": "http://snomed.info/sct",
              "code": "17621005",
              "display": "Normal"
            }
          ]
        },
        "type": [
          {
            "coding": [
              {
                "system": "http://snomed.info/sct",
                "code": "11429006",
                "display": "Consultation"
              }
            ]
          }
        ],
        "subject": {
          "reference": "Patient/ff50f13f-3fc1-4ffe-b54f-6c0c3cb0a3f3",
          "display": "Yulia Antonova"
        },
        "reason": [
          {
            "value": [
              {
                "concept": {
                  "text": "recurrent episodes of morning urine discoloration and mild shortness of breath on exertion"
                }
              }
            ]
          }
        ]
      },
      "request": {
        "method": "POST",
        "url": "Encounter"
      }
    },
    {
      "fullUrl": "urn:uuid:326eee94-a76f-430f-9e70-db34f81ceccb",
      "resource": {
        "resourceType": "Observation",
        "id": "326eee94-a76f-430f-9e70-db34f81ceccb",
        "status": "final",
        "category": [
          {
            "coding": [
              {
                "system": "http://terminology.hl7.org/CodeSystem/observation-category",
                "code": "laboratory",
                "display": "Laboratory"
              }
            ],
            "text": "Laboratory"
          }
        ],
        "code": {
          "coding": [
            {
              "system": "http://loinc.org",
              "code": "62854-5",
              "display": "PhenX - glycosylated hemoglobin assay reflecting long-term glucose concentration protocol 140901"
            }
          ],
          "text": "Hemoglobin"
        },
        "subject": {
          "reference": "Patient/ff50f13f-3fc1-4ffe-b54f-6c0c3cb0a3f3"
        },
        "encounter": {
          "reference": "Encounter/764d5543-91b7-4524-a282-ad69739fef7d"
        },
        "effectiveDateTime": "2025-10-16",
        "valueQuantity": {
          "value": 9.6,
          "unit": "g/dL",
          "system": "http://unitsofmeasure.org",
          "code": "g/dL"
        },
        "interpretation": [
          {
            "coding": [
              {
                "system": "http://terminology.hl7.org/CodeSystem/v3-ObservationInterpretation",
                "code": "L",
                "display": "Low"
              }
            ]
          }
        ],
        "note": [
          {
            "text": "Definition: https://loinc.org/62854-5/"
          }
        ]
      },
      "request": {
        "method": "POST",
        "url": "Observation"
      }
    },
    {
      "fullUrl": "urn:uuid:340356a7-3c50-4624-853d-bfa96a199cd3",
      "resource": {
        "resourceType": "Observation",
        "id": "340356a7-3c50-4624-853d-bfa96a199cd3",
        "status": "final",
        "category": [
          {
            "coding": [
              {
                "system": "http://terminology.hl7.org/CodeSystem/observation-category",
                "code": "laboratory",
                "display": "Laboratory"
              }
            ],
            "text": "Laboratory"
          }
        ],
        "code": {
          "coding": [
            {
              "system": "http://loinc.org",
              "code": "14196-0",
              "display": "Retics #"
            }
          ],
          "text": "Reticulocyte count"
        },
        "subject": {
          "reference": "Patient/ff50f13f-3fc1-4ffe-b54f-6c0c3cb0a3f3"
        },
        "encounter": {
          "reference": "Encounter/764d5543-91b7-4524-a282-ad69739fef7d"
        },
        "effectiveDateTime": "2025-10-16",
        "valueQuantity": {
          "value": 4.5,
          "unit": "%",
          "system": "http://unitsofmeasure.org",
          "code": "%"
        },
        "note": [
          {
            "text": "Definition: https://loinc.org/14196-0/"
          }
        ]
      },
      "request": {
        "method": "POST",
        "url": "Observation"
      }
    },
    {
      "fullUrl": "urn:uuid:5e937b07-cf29-4652-8722-2f0ad4350189",
      "resource": {
        "resourceType": "Observation",
        "id": "5e937b07-cf29-4652-8722-2f0ad4350189",
        "status": "final",
        "category": [
          {
            "coding": [
              {
                "system": "http://terminology.hl7.org/CodeSystem/observation-category",
                "code": "laboratory",
                "display": "Laboratory"
              }
            ],
            "text": "Laboratory"
          }
        ],
        "code": {
          "coding": [
            {
              "system": "http://loinc.org",
              "code": "2546-0",
              "display": "LDH4 SerPl-cCnc"
            }
          ],
          "text": "LDH"
        },
        "subject": {
          "reference": "Patient/ff50f13f-3fc1-4ffe-b54f-6c0c3cb0a3f3"
        },
        "encounter": {
          "reference": "Encounter/764d5543-91b7-4524-a282-ad69739fef7d"
        },
        "effectiveDateTime": "2025-10-16",
        "valueQuantity": {
          "value": 720.0,
          "unit": "U/L",
          "system": "http://unitsofmeasure.org",
          "code": "U/L"
        },
        "interpretation": [
          {
            "coding": [
              {
                "system": "http://terminology.hl7.org/CodeSystem/v3-ObservationInterpretation",
                "code": "H",
                "display": "High"
              }
            ]
          }
        ],
        "note": [
          {
            "text": "Definition: https://loinc.org/2546-0/"
          }
        ]
      },
      "request": {
        "method": "POST",
        "url": "Observation"
      }
    },
    {
      "fullUrl": "urn:uuid:c08213a9-d541-42bb-abc7-f248c14b6666",
      "resource": {
        "resourceType": "Observation",
        "id": "c08213a9-d541-42bb-abc7-f248c14b6666",
        "status": "final",
        "category": [
          {
            "coding": [
              {
                "system": "http://terminology.hl7.org/CodeSystem/observation-category",
                "code": "exam",
                "display": "Exam"
              }
            ],
            "text": "Exam"
          }
        ],
        "code": {
          "coding": [
            {
              "system": "http://snomed.info/sct",
              "code": "135833008",
              "display": "CLASP shortness of breath score"
            }
          ],
          "text": "Shortness of breath"
        },
        "subject": {
          "reference": "Patient/ff50f13f-3fc1-4ffe-b54f-6c0c3cb0a3f3"
        },
        "encounter": {
          "reference": "Encounter/764d5543-91b7-4524-a282-ad69739fef7d"
        },
        "effectivePeriod": {
          "start": "2025-10-16"
        },
        "valueBoolean": true,
        "note": [
          {
            "text": "Definition: https://snomed.info/id/135833008"
          }
        ]
      },
      "request": {
        "method": "POST",
        "url": "Observation"
      }
    },
    {
      "fullUrl": "urn:uuid:d94490b4-d336-4878-ba5a-1918151e48d3",
      "resource": {
        "resourceType": "Observation",
        "id": "d94490b4-d336-4878-ba5a-1918151e48d3",
        "status": "final",
        "category": [
          {
            "coding": [
              {
                "system": "http://terminology.hl7.org/CodeSystem/observation-category",
                "code": "exam",
                "display": "Exam"
              }
            ],
            "text": "Exam"
          }
        ],
        "code": {
          "coding": [
            {
              "system": "http://snomed.info/sct",
              "code": "258575007",
              "display": "Early morning urine specimen"
            }
          ],
          "text": "Morning urine discoloration"
        },
        "subject": {
          "reference": "Patient/ff50f13f-3fc1-4ffe-b54f-6c0c3cb0a3f3"
        },
        "encounter": {
          "reference": "Encounter/764d5543-91b7-4524-a282-ad69739fef7d"
        },
        "effectivePeriod": {
          "start": "2025-10-16"
        },
        "valueBoolean": true,
        "note": [
          {
            "text": "Definition: https://snomed.info/id/258575007"
          }
        ]
      },
      "request": {
        "method": "POST",
        "url": "Observation"
      }
    },
    {
      "fullUrl": "urn:uuid:4d5380a1-7f23-436e-aaa1-af6da38722fa",
      "resource": {
        "resourceType": "Observation",
        "id": "4d5380a1-7f23-436e-aaa1-af6da38722fa",
        "status": "final",
        "category": [
          {
            "coding": [
              {
                "system": "http://terminology.hl7.org/CodeSystem/observation-category",
                "code": "vital-signs",
                "display": "Vital Signs"
              }
            ],
            "text": "Vital Signs"
          }
        ],
        "code": {
          "coding": [
            {
              "system": "http://loinc.org",
              "code": "18684-1",
              "display": "Blood pressure"
            }
          ],
          "text": "Blood pressure"
        },
        "subject": {
          "reference": "Patient/ff50f13f-3fc1-4ffe-b54f-6c0c3cb0a3f3"
        },
        "encounter": {
          "reference": "Encounter/764d5543-91b7-4524-a282-ad69739fef7d"
        },
        "effectiveDateTime": "2025-10-16",
        "valueQuantity": {
          "value": 110.0,
          "unit": "mmHg",
          "system": "http://unitsofmeasure.org",
          "code": "mmHg"
        },
        "interpretation": [
          {
            "coding": [
              {
                "system": "http://terminology.hl7.org/CodeSystem/v3-ObservationInterpretation",
                "code": "N",
                "display": "Normal"
              }
            ],
            "text": "Normal"
          }
        ]
      },
      "request": {
        "method": "POST",
        "url": "Observation"
      }
    },
    {
      "fullUrl": "urn:uuid:80662375-ef79-4937-9ee8-8511f0c4ad19",
      "resource": {
        "resourceType": "Observation",
        "id": "80662375-ef79-4937-9ee8-8511f0c4ad19",
        "status": "final",
        "category": [
          {
            "coding": [
              {
                "system": "http://terminology.hl7.org/CodeSystem/observation-category",
                "code": "vital-signs",
                "display": "Vital Signs"
              }
            ],
            "text": "Vital Signs"
          }
        ],
        "code": {
          "coding": [
            {
              "system": "http://loinc.org",
              "code": "62733-1",
              "display": "PhenX - respiratory - pulse oximetry - rest protocol 091101"
            }
          ],
          "text": "Pulse"
        },
        "subject": {
          "reference": "Patient/ff50f13f-3fc1-4ffe-b54f-6c0c3cb0a3f3"
        },
        "encounter": {
          "reference": "Encounter/764d5543-91b7-4524-a282-ad69739fef7d"
        },
        "effectiveDateTime": "2025-10-16",
        "valueQuantity": {
          "value": 78.0,
          "unit": "bpm",
          "system": "http://unitsofmeasure.org",
          "code": "bpm"
        },
        "interpretation": [
          {
            "coding": [
              {
                "system": "http://terminology.hl7.org/CodeSystem/v3-ObservationInterpretation",
                "code": "N",
                "display": "Normal"
              }
            ],
            "text": "Normal"
          }
        ]
      },
      "request": {
        "method": "POST",
        "url": "Observation"
      }
    }
  ]
}