{
  "resourceType": "Bundle",
  "type": "transaction",
  "entry": [
    {
      "fullUrl": "urn:uuid:c2808d17-b696-48e4-8f85-081c54835b69",
      "resource": {
        "resourceType": "Patient",
        "id": "c2808d17-b696-48e4-8f85-081c54835b69",
        "name": [
          {
            "family": "Fedorova",
            "given": [
              "Elena"
            ]
          }
        ],
        "gender": "female",
        "birthDate": "2022-01-01",
        "address": [
          {}
        ]
      },
      "request": {
        "method": "POST",
        "url": "Patient"
      }
    },
    {
      "fullUrl": "urn:uuid:3b364987-1a40-4656-b0d1-9e479b2038f4",
      "resource": {
        "resourceType": "Encounter",
        "id": "3b364987-1a40-4656-b0d1-9e479b2038f4",
        "identifier": [
          {
            "use": "temp",
            "value": "Encounter_Elena Fedorova_20251020131958"
          }
        ],
        "status": "completed",
        "priority": {
          "coding": [
            {
              "system": "http://snomed.info/sct",
              "code": "17621005",
              "display": "Normal"
            }
          ]
        },
        "type": [
          {
            "coding": [
              {
                "system": "http://snomed.info/sct",
                "code": "11429006",
                "display": "Consultation"
              }
            ]
          }
        ],
        "subject": {
          "reference": "Patient/c2808d17-b696-48e4-8f85-081c54835b69",
          "display": "Elena Fedorova"
        },
        "reason": [
          {
            "value": [
              {
                "concept": {
                  "text": "developmental delay and obesity"
                }
              }
            ]
          }
        ]
      },
      "request": {
        "method": "POST",
        "url": "Encounter"
      }
    },
    {
      "fullUrl": "urn:uuid:9337d691-4458-44c9-a822-ee3f2ac04c28",
      "resource": {
        "resourceType": "Observation",
        "id": "9337d691-4458-44c9-a822-ee3f2ac04c28",
        "status": "final",
        "category": [
          {
            "coding": [
              {
                "system": "http://terminology.hl7.org/CodeSystem/observation-category",
                "code": "exam",
                "display": "Exam"
              }
            ],
            "text": "Exam"
          }
        ],
        "code": {
          "coding": [
            {
              "system": "http://snomed.info/sct",
              "code": "248290002",
              "display": "Developmental delay"
            }
          ],
          "text": "Developmental delay"
        },
        "subject": {
          "reference": "Patient/c2808d17-b696-48e4-8f85-081c54835b69"
        },
        "encounter": {
          "reference": "Encounter/3b364987-1a40-4656-b0d1-9e479b2038f4"
        },
        "effectivePeriod": {
          "start": "2025-10-16"
        },
        "valueBoolean": true,
        "note": [
          {
            "text": "Definition: https://snomed.info/id/248290002"
          }
        ]
      },
      "request": {
        "method": "POST",
        "url": "Observation"
      }
    },
    {
      "fullUrl": "urn:uuid:8e109cb2-acdc-4085-ba09-6e20a9fe3f71",
      "resource": {
        "resourceType": "Observation",
        "id": "8e109cb2-acdc-4085-ba09-6e20a9fe3f71",
        "status": "final",
        "category": [
          {
            "coding": [
              {
                "system": "http://terminology.hl7.org/CodeSystem/observation-category",
                "code": "exam",
                "display": "Exam"
              }
            ],
            "text": "Exam"
          }
        ],
        "code": {
          "coding": [
            {
              "system": "http://snomed.info/sct",
              "code": "414916001",
              "display": "Obesity"
            }
          ],
          "text": "Obesity"
        },
        "subject": {
          "reference": "Patient/c2808d17-b696-48e4-8f85-081c54835b69"
        },
        "encounter": {
          "reference": "Encounter/3b364987-1a40-4656-b0d1-9e479b2038f4"
        },
        "effectivePeriod": {
          "start": "2025-10-16"
        },
        "valueBoolean": true,
        "note": [
          {
            "text": "Definition: https://snomed.info/id/414916001"
          }
        ]
      },
      "request": {
        "method": "POST",
        "url": "Observation"
      }
    },
    {
      "fullUrl": "urn:uuid:27c565fe-fc28-427e-b541-2d26d3394dc9",
      "resource": {
        "resourceType": "Observation",
        "id": "27c565fe-fc28-427e-b541-2d26d3394dc9",
        "status": "final",
        "category": [
          {
            "coding": [
              {
                "system": "http://terminology.hl7.org/CodeSystem/observation-category",
                "code": "exam",
                "display": "Exam"
              }
            ],
            "text": "Exam"
          }
        ],
        "code": {
          "coding": [
            {
              "system": "http://snomed.info/sct",
              "code": "405080002",
              "display": "Health seeking behavior"
            }
          ],
          "text": "Increased food-seeking behavior"
        },
        "subject": {
          "reference": "Patient/c2808d17-b696-48e4-8f85-081c54835b69"
        },
        "encounter": {
          "reference": "Encounter/3b364987-1a40-4656-b0d1-9e479b2038f4"
        },
        "effectivePeriod": {
          "start": "2025-10-16"
        },
        "valueBoolean": true,
        "note": [
          {
            "text": "Definition: https://snomed.info/id/405080002"
          }
        ]
      },
      "request": {
        "method": "POST",
        "url": "Observation"
      }
    },
    {
      "fullUrl": "urn:uuid:b813c68e-a590-4127-8481-4af9beac3dd5",
      "resource": {
        "resourceType": "Observation",
        "id": "b813c68e-a590-4127-8481-4af9beac3dd5",
        "status": "final",
        "category": [
          {
            "coding": [
              {
                "system": "http://terminology.hl7.org/CodeSystem/observation-category",
                "code": "vital-signs",
                "display": "Vital Signs"
              }
            ],
            "text": "Vital Signs"
          }
        ],
        "code": {
          "coding": [
            {
              "system": "http://loinc.org",
              "code": "8337-8",
              "display": "Bdy weight special circumstances"
            }
          ],
          "text": "weight"
        },
        "subject": {
          "reference": "Patient/c2808d17-b696-48e4-8f85-081c54835b69"
        },
        "encounter": {
          "reference": "Encounter/3b364987-1a40-4656-b0d1-9e479b2038f4"
        },
        "effectiveDateTime": "2025-10-16",
        "interpretation": [
          {
            "coding": [
              {
                "system": "http://terminology.hl7.org/CodeSystem/v3-ObservationInterpretation",
                "code": "A",
                "display": "Abnormal"
              }
            ],
            "text": "Abnormal"
          }
        ]
      },
      "request": {
        "method": "POST",
        "url": "Observation"
      }
    },
    {
      "fullUrl": "urn:uuid:468910f8-870e-4c8c-9805-d26686ecbedb",
      "resource": {
        "resourceType": "Observation",
        "id": "468910f8-870e-4c8c-9805-d26686ecbedb",
        "status": "final",
        "category": [
          {
            "coding": [
              {
                "system": "http://terminology.hl7.org/CodeSystem/observation-category",
                "code": "vital-signs",
                "display": "Vital Signs"
              }
            ],
            "text": "Vital Signs"
          }
        ],
        "code": {
          "coding": [
            {
              "system": "http://loinc.org",
              "code": "92998-4",
              "display": "Lower segment"
            }
          ],
          "text": "height"
        },
        "subject": {
          "reference": "Patient/c2808d17-b696-48e4-8f85-081c54835b69"
        },
        "encounter": {
          "reference": "Encounter/3b364987-1a40-4656-b0d1-9e479b2038f4"
        },
        "effectiveDateTime": "2025-10-16",
        "interpretation": [
          {
            "coding": [
              {
                "system": "http://terminology.hl7.org/CodeSystem/v3-ObservationInterpretation",
                "code": "A",
                "display": "Abnormal"
              }
            ],
            "text": "Abnormal"
          }
        ]
      },
      "request": {
        "method": "POST",
        "url": "Observation"
      }
    },
    {
      "fullUrl": "urn:uuid:8fed8e8b-a9d2-47a5-8809-7f2332102b8e",
      "resource": {
        "resourceType": "Observation",
        "id": "8fed8e8b-a9d2-47a5-8809-7f2332102b8e",
        "status": "final",
        "category": [
          {
            "coding": [
              {
                "system": "http://terminology.hl7.org/CodeSystem/observation-category",
                "code": "vital-signs",
                "display": "Vital Signs"
              }
            ],
            "text": "Vital Signs"
          }
        ],
        "code": {
          "coding": [
            {
              "system": "http://loinc.org",
              "code": "32403-8",
              "display": "10M Apgar Muscle tone"
            }
          ],
          "text": "muscle tone"
        },
        "subject": {
          "reference": "Patient/c2808d17-b696-48e4-8f85-081c54835b69"
        },
        "encounter": {
          "reference": "Encounter/3b364987-1a40-4656-b0d1-9e479b2038f4"
        },
        "effectiveDateTime": "2025-10-16",
        "interpretation": [
          {
            "coding": [
              {
                "system": "http://terminology.hl7.org/CodeSystem/v3-ObservationInterpretation",
                "code": "A",
                "display": "Abnormal"
              }
            ],
            "text": "Abnormal"
          }
        ]
      },
      "request": {
        "method": "POST",
        "url": "Observation"
      }
    }
  ]
}