{
  "resourceType": "Bundle",
  "type": "transaction",
  "entry": [
    {
      "fullUrl": "urn:uuid:e6a6b089-be1f-44d9-8b3c-1494c6d1b03c",
      "resource": {
        "resourceType": "Patient",
        "id": "e6a6b089-be1f-44d9-8b3c-1494c6d1b03c",
        "name": [
          {
            "family": "Fedorova",
            "given": [
              "Elena"
            ]
          }
        ],
        "gender": "female",
        "address": [
          {}
        ]
      },
      "request": {
        "method": "POST",
        "url": "Patient"
      }
    },
    {
      "fullUrl": "urn:uuid:61bcdbf3-2c0e-4828-b69b-c6a4e249d8ce",
      "resource": {
        "resourceType": "Encounter",
        "id": "61bcdbf3-2c0e-4828-b69b-c6a4e249d8ce",
        "identifier": [
          {
            "use": "temp",
            "value": "Encounter_Elena Fedorova_20251017182955"
          }
        ],
        "status": "completed",
        "priority": {
          "coding": [
            {
              "system": "http://snomed.info/sct",
              "code": "17621005",
              "display": "Normal"
            }
          ]
        },
        "type": [
          {
            "coding": [
              {
                "system": "http://snomed.info/sct",
                "code": "11429006",
                "display": "Consultation"
              }
            ]
          }
        ],
        "subject": {
          "reference": "Patient/e6a6b089-be1f-44d9-8b3c-1494c6d1b03c",
          "display": "Elena Fedorova"
        },
        "reason": [
          {
            "value": [
              {
                "concept": {
                  "text": "developmental delay and obesity"
                }
              }
            ]
          }
        ]
      },
      "request": {
        "method": "POST",
        "url": "Encounter"
      }
    },
    {
      "fullUrl": "urn:uuid:524d35eb-ec34-472e-8352-7dd574a8b690",
      "resource": {
        "resourceType": "Observation",
        "id": "524d35eb-ec34-472e-8352-7dd574a8b690",
        "status": "final",
        "category": [
          {
            "coding": [
              {
                "system": "http://terminology.hl7.org/CodeSystem/observation-category",
                "code": "exam",
                "display": "Exam"
              }
            ],
            "text": "Exam"
          }
        ],
        "code": {
          "coding": [
            {
              "system": "http://snomed.info/sct",
              "code": "248290002",
              "display": "Developmental delay"
            }
          ],
          "text": "Developmental delay"
        },
        "subject": {
          "reference": "Patient/e6a6b089-be1f-44d9-8b3c-1494c6d1b03c"
        },
        "encounter": {
          "reference": "Encounter/61bcdbf3-2c0e-4828-b69b-c6a4e249d8ce"
        },
        "effectivePeriod": {
          "start": "2025-10-16"
        },
        "valueBoolean": true,
        "note": [
          {
            "text": "Definition: https://snomed.info/id/248290002"
          }
        ]
      },
      "request": {
        "method": "POST",
        "url": "Observation"
      }
    },
    {
      "fullUrl": "urn:uuid:b5cca44b-0205-413b-81d7-d7547513ac2a",
      "resource": {
        "resourceType": "Observation",
        "id": "b5cca44b-0205-413b-81d7-d7547513ac2a",
        "status": "final",
        "category": [
          {
            "coding": [
              {
                "system": "http://terminology.hl7.org/CodeSystem/observation-category",
                "code": "exam",
                "display": "Exam"
              }
            ],
            "text": "Exam"
          }
        ],
        "code": {
          "coding": [
            {
              "system": "http://snomed.info/sct",
              "code": "414916001",
              "display": "Obesity"
            }
          ],
          "text": "Obesity"
        },
        "subject": {
          "reference": "Patient/e6a6b089-be1f-44d9-8b3c-1494c6d1b03c"
        },
        "encounter": {
          "reference": "Encounter/61bcdbf3-2c0e-4828-b69b-c6a4e249d8ce"
        },
        "effectivePeriod": {
          "start": "2025-10-16"
        },
        "valueBoolean": true,
        "note": [
          {
            "text": "Definition: https://snomed.info/id/414916001"
          }
        ]
      },
      "request": {
        "method": "POST",
        "url": "Observation"
      }
    },
    {
      "fullUrl": "urn:uuid:e08b5679-1b9f-4bdd-ac74-18ed31767398",
      "resource": {
        "resourceType": "Observation",
        "id": "e08b5679-1b9f-4bdd-ac74-18ed31767398",
        "status": "final",
        "category": [
          {
            "coding": [
              {
                "system": "http://terminology.hl7.org/CodeSystem/observation-category",
                "code": "exam",
                "display": "Exam"
              }
            ],
            "text": "Exam"
          }
        ],
        "code": {
          "coding": [
            {
              "system": "http://snomed.info/sct",
              "code": "405080002",
              "display": "Health seeking behavior"
            }
          ],
          "text": "Increased food-seeking behavior"
        },
        "subject": {
          "reference": "Patient/e6a6b089-be1f-44d9-8b3c-1494c6d1b03c"
        },
        "encounter": {
          "reference": "Encounter/61bcdbf3-2c0e-4828-b69b-c6a4e249d8ce"
        },
        "effectivePeriod": {
          "start": "2025-10-16"
        },
        "valueBoolean": true,
        "note": [
          {
            "text": "Definition: https://snomed.info/id/405080002"
          }
        ]
      },
      "request": {
        "method": "POST",
        "url": "Observation"
      }
    },
    {
      "fullUrl": "urn:uuid:2b56a260-fc31-4980-8945-1e25072c78a3",
      "resource": {
        "resourceType": "Observation",
        "id": "2b56a260-fc31-4980-8945-1e25072c78a3",
        "status": "final",
        "category": [
          {
            "coding": [
              {
                "system": "http://terminology.hl7.org/CodeSystem/observation-category",
                "code": "vital-signs",
                "display": "Vital Signs"
              }
            ],
            "text": "Vital Signs"
          }
        ],
        "code": {
          "coding": [
            {
              "system": "http://loinc.org",
              "code": "8337-8",
              "display": "Bdy weight special circumstances"
            }
          ],
          "text": "weight"
        },
        "subject": {
          "reference": "Patient/e6a6b089-be1f-44d9-8b3c-1494c6d1b03c"
        },
        "encounter": {
          "reference": "Encounter/61bcdbf3-2c0e-4828-b69b-c6a4e249d8ce"
        },
        "effectiveDateTime": "2025-10-16",
        "interpretation": [
          {
            "coding": [
              {
                "system": "http://terminology.hl7.org/CodeSystem/v3-ObservationInterpretation",
                "code": "A",
                "display": "Abnormal"
              }
            ],
            "text": "Abnormal"
          }
        ]
      },
      "request": {
        "method": "POST",
        "url": "Observation"
      }
    },
    {
      "fullUrl": "urn:uuid:abb07747-8e89-4f69-a12d-bded1d2bf31a",
      "resource": {
        "resourceType": "Observation",
        "id": "abb07747-8e89-4f69-a12d-bded1d2bf31a",
        "status": "final",
        "category": [
          {
            "coding": [
              {
                "system": "http://terminology.hl7.org/CodeSystem/observation-category",
                "code": "vital-signs",
                "display": "Vital Signs"
              }
            ],
            "text": "Vital Signs"
          }
        ],
        "code": {
          "coding": [
            {
              "system": "http://loinc.org",
              "code": "92998-4",
              "display": "Lower segment"
            }
          ],
          "text": "height"
        },
        "subject": {
          "reference": "Patient/e6a6b089-be1f-44d9-8b3c-1494c6d1b03c"
        },
        "encounter": {
          "reference": "Encounter/61bcdbf3-2c0e-4828-b69b-c6a4e249d8ce"
        },
        "effectiveDateTime": "2025-10-16",
        "interpretation": [
          {
            "coding": [
              {
                "system": "http://terminology.hl7.org/CodeSystem/v3-ObservationInterpretation",
                "code": "A",
                "display": "Abnormal"
              }
            ],
            "text": "Abnormal"
          }
        ]
      },
      "request": {
        "method": "POST",
        "url": "Observation"
      }
    },
    {
      "fullUrl": "urn:uuid:552a66b4-58c4-4b21-81c2-1ae1d435396a",
      "resource": {
        "resourceType": "Observation",
        "id": "552a66b4-58c4-4b21-81c2-1ae1d435396a",
        "status": "final",
        "category": [
          {
            "coding": [
              {
                "system": "http://terminology.hl7.org/CodeSystem/observation-category",
                "code": "vital-signs",
                "display": "Vital Signs"
              }
            ],
            "text": "Vital Signs"
          }
        ],
        "code": {
          "coding": [
            {
              "system": "http://loinc.org",
              "code": "32403-8",
              "display": "10M Apgar Muscle tone"
            }
          ],
          "text": "muscle tone"
        },
        "subject": {
          "reference": "Patient/e6a6b089-be1f-44d9-8b3c-1494c6d1b03c"
        },
        "encounter": {
          "reference": "Encounter/61bcdbf3-2c0e-4828-b69b-c6a4e249d8ce"
        },
        "effectiveDateTime": "2025-10-16",
        "interpretation": [
          {
            "coding": [
              {
                "system": "http://terminology.hl7.org/CodeSystem/v3-ObservationInterpretation",
                "code": "A",
                "display": "Abnormal"
              }
            ],
            "text": "Abnormal"
          }
        ]
      },
      "request": {
        "method": "POST",
        "url": "Observation"
      }
    }
  ]
}