{
  "resourceType": "Bundle",
  "type": "transaction",
  "entry": [
    {
      "fullUrl": "urn:uuid:916df9b3-f266-4a85-b8ca-ea943e99124a",
      "resource": {
        "resourceType": "Patient",
        "id": "916df9b3-f266-4a85-b8ca-ea943e99124a",
        "name": [
          {
            "family": "Sokolov",
            "given": [
              "Pavel"
            ]
          }
        ],
        "gender": "male",
        "birthDate": "2021-01-01",
        "address": [
          {}
        ]
      },
      "request": {
        "method": "POST",
        "url": "Patient"
      }
    },
    {
      "fullUrl": "urn:uuid:f5690bb4-5911-4481-bfc3-928c4417e586",
      "resource": {
        "resourceType": "Encounter",
        "id": "f5690bb4-5911-4481-bfc3-928c4417e586",
        "identifier": [
          {
            "use": "temp",
            "value": "Encounter_Pavel Sokolov_20251020131946"
          }
        ],
        "status": "completed",
        "priority": {
          "coding": [
            {
              "system": "http://snomed.info/sct",
              "code": "17621005",
              "display": "Normal"
            }
          ]
        },
        "type": [
          {
            "coding": [
              {
                "system": "http://snomed.info/sct",
                "code": "11429006",
                "display": "Consultation"
              }
            ]
          }
        ],
        "subject": {
          "reference": "Patient/916df9b3-f266-4a85-b8ca-ea943e99124a",
          "display": "Pavel Sokolov"
        },
        "reason": [
          {
            "value": [
              {
                "concept": {
                  "text": "poor growth, mild developmental delay, and an insatiable appetite"
                }
              }
            ]
          }
        ]
      },
      "request": {
        "method": "POST",
        "url": "Encounter"
      }
    },
    {
      "fullUrl": "urn:uuid:bbb99d43-44a7-460c-9bec-f962575587f8",
      "resource": {
        "resourceType": "Observation",
        "id": "bbb99d43-44a7-460c-9bec-f962575587f8",
        "status": "final",
        "category": [
          {
            "coding": [
              {
                "system": "http://terminology.hl7.org/CodeSystem/observation-category",
                "code": "exam",
                "display": "Exam"
              }
            ],
            "text": "Exam"
          }
        ],
        "code": {
          "coding": [
            {
              "system": "http://snomed.info/sct",
              "code": "247525002",
              "display": "Poor hair growth"
            }
          ],
          "text": "Poor growth"
        },
        "subject": {
          "reference": "Patient/916df9b3-f266-4a85-b8ca-ea943e99124a"
        },
        "encounter": {
          "reference": "Encounter/f5690bb4-5911-4481-bfc3-928c4417e586"
        },
        "effectivePeriod": {
          "start": "2025-10-16"
        },
        "valueBoolean": true,
        "note": [
          {
            "text": "Definition: https://snomed.info/id/247525002"
          }
        ]
      },
      "request": {
        "method": "POST",
        "url": "Observation"
      }
    },
    {
      "fullUrl": "urn:uuid:1d6ddba3-f383-4f11-8c72-39e37d47239d",
      "resource": {
        "resourceType": "Observation",
        "id": "1d6ddba3-f383-4f11-8c72-39e37d47239d",
        "status": "final",
        "category": [
          {
            "coding": [
              {
                "system": "http://terminology.hl7.org/CodeSystem/observation-category",
                "code": "exam",
                "display": "Exam"
              }
            ],
            "text": "Exam"
          }
        ],
        "code": {
          "coding": [
            {
              "system": "http://snomed.info/sct",
              "code": "248290002",
              "display": "Developmental delay"
            }
          ],
          "text": "Mild developmental delay"
        },
        "subject": {
          "reference": "Patient/916df9b3-f266-4a85-b8ca-ea943e99124a"
        },
        "encounter": {
          "reference": "Encounter/f5690bb4-5911-4481-bfc3-928c4417e586"
        },
        "effectivePeriod": {
          "start": "2025-10-16"
        },
        "valueBoolean": true,
        "note": [
          {
            "text": "Definition: https://snomed.info/id/248290002"
          }
        ]
      },
      "request": {
        "method": "POST",
        "url": "Observation"
      }
    },
    {
      "fullUrl": "urn:uuid:3f2553ad-aedd-4314-bab0-e9118de62a19",
      "resource": {
        "resourceType": "Observation",
        "id": "3f2553ad-aedd-4314-bab0-e9118de62a19",
        "status": "final",
        "category": [
          {
            "coding": [
              {
                "system": "http://terminology.hl7.org/CodeSystem/observation-category",
                "code": "exam",
                "display": "Exam"
              }
            ],
            "text": "Exam"
          }
        ],
        "code": {
          "coding": [
            {
              "system": "http://snomed.info/sct",
              "code": "249473004",
              "display": "Altered appetite"
            }
          ],
          "text": "Insatiable appetite"
        },
        "subject": {
          "reference": "Patient/916df9b3-f266-4a85-b8ca-ea943e99124a"
        },
        "encounter": {
          "reference": "Encounter/f5690bb4-5911-4481-bfc3-928c4417e586"
        },
        "effectivePeriod": {
          "start": "2025-10-16"
        },
        "valueBoolean": true,
        "note": [
          {
            "text": "Definition: https://snomed.info/id/249473004"
          }
        ]
      },
      "request": {
        "method": "POST",
        "url": "Observation"
      }
    },
    {
      "fullUrl": "urn:uuid:73908a59-431d-446e-be23-128199da2bbe",
      "resource": {
        "resourceType": "Observation",
        "id": "73908a59-431d-446e-be23-128199da2bbe",
        "status": "final",
        "category": [
          {
            "coding": [
              {
                "system": "http://terminology.hl7.org/CodeSystem/observation-category",
                "code": "exam",
                "display": "Exam"
              }
            ],
            "text": "Exam"
          }
        ],
        "code": {
          "coding": [
            {
              "system": "http://snomed.info/sct",
              "code": "704200007",
              "display": "Acquired hypotonia"
            }
          ],
          "text": "Mild hypotonia"
        },
        "subject": {
          "reference": "Patient/916df9b3-f266-4a85-b8ca-ea943e99124a"
        },
        "encounter": {
          "reference": "Encounter/f5690bb4-5911-4481-bfc3-928c4417e586"
        },
        "effectivePeriod": {
          "start": "2025-10-16"
        },
        "valueBoolean": true,
        "note": [
          {
            "text": "Definition: https://snomed.info/id/704200007"
          }
        ]
      },
      "request": {
        "method": "POST",
        "url": "Observation"
      }
    },
    {
      "fullUrl": "urn:uuid:6511da6b-1b59-46d7-ab89-bd3938720ce3",
      "resource": {
        "resourceType": "Observation",
        "id": "6511da6b-1b59-46d7-ab89-bd3938720ce3",
        "status": "final",
        "category": [
          {
            "coding": [
              {
                "system": "http://terminology.hl7.org/CodeSystem/observation-category",
                "code": "vital-signs",
                "display": "Vital Signs"
              }
            ],
            "text": "Vital Signs"
          }
        ],
        "code": {
          "coding": [
            {
              "system": "http://loinc.org",
              "code": "107102-6",
              "display": "BMI formula"
            }
          ],
          "text": "BMI"
        },
        "subject": {
          "reference": "Patient/916df9b3-f266-4a85-b8ca-ea943e99124a"
        },
        "encounter": {
          "reference": "Encounter/f5690bb4-5911-4481-bfc3-928c4417e586"
        },
        "effectiveDateTime": "2025-10-16",
        "interpretation": [
          {
            "coding": [
              {
                "system": "http://terminology.hl7.org/CodeSystem/v3-ObservationInterpretation",
                "code": "H",
                "display": "High"
              }
            ],
            "text": "High"
          }
        ]
      },
      "request": {
        "method": "POST",
        "url": "Observation"
      }
    },
    {
      "fullUrl": "urn:uuid:a73878b1-1dd5-4595-af55-d6c76d1124b3",
      "resource": {
        "resourceType": "Observation",
        "id": "a73878b1-1dd5-4595-af55-d6c76d1124b3",
        "status": "final",
        "category": [
          {
            "coding": [
              {
                "system": "http://terminology.hl7.org/CodeSystem/observation-category",
                "code": "vital-signs",
                "display": "Vital Signs"
              }
            ],
            "text": "Vital Signs"
          }
        ],
        "code": {
          "coding": [
            {
              "system": "http://loinc.org",
              "code": "92998-4",
              "display": "Lower segment"
            }
          ],
          "text": "Height"
        },
        "subject": {
          "reference": "Patient/916df9b3-f266-4a85-b8ca-ea943e99124a"
        },
        "encounter": {
          "reference": "Encounter/f5690bb4-5911-4481-bfc3-928c4417e586"
        },
        "effectiveDateTime": "2025-10-16",
        "interpretation": [
          {
            "coding": [
              {
                "system": "http://terminology.hl7.org/CodeSystem/v3-ObservationInterpretation",
                "code": "L",
                "display": "Low"
              }
            ],
            "text": "Low"
          }
        ]
      },
      "request": {
        "method": "POST",
        "url": "Observation"
      }
    }
  ]
}