{
  "resourceType": "Bundle",
  "type": "transaction",
  "entry": [
    {
      "fullUrl": "urn:uuid:9ebb244e-660a-47f5-88b5-dbfe246dfa3d",
      "resource": {
        "resourceType": "Patient",
        "id": "9ebb244e-660a-47f5-88b5-dbfe246dfa3d",
        "name": [
          {
            "family": "Sokolov",
            "given": [
              "Pavel"
            ]
          }
        ],
        "gender": "male",
        "address": [
          {}
        ]
      },
      "request": {
        "method": "POST",
        "url": "Patient"
      }
    },
    {
      "fullUrl": "urn:uuid:a6b6e140-9198-4207-bff9-a57b5d869e7b",
      "resource": {
        "resourceType": "Encounter",
        "id": "a6b6e140-9198-4207-bff9-a57b5d869e7b",
        "identifier": [
          {
            "use": "temp",
            "value": "Encounter_Pavel Sokolov_20251017182940"
          }
        ],
        "status": "completed",
        "priority": {
          "coding": [
            {
              "system": "http://snomed.info/sct",
              "code": "17621005",
              "display": "Normal"
            }
          ]
        },
        "type": [
          {
            "coding": [
              {
                "system": "http://snomed.info/sct",
                "code": "11429006",
                "display": "Consultation"
              }
            ]
          }
        ],
        "subject": {
          "reference": "Patient/9ebb244e-660a-47f5-88b5-dbfe246dfa3d",
          "display": "Pavel Sokolov"
        },
        "reason": [
          {
            "value": [
              {
                "concept": {
                  "text": "poor growth, mild developmental delay, and an insatiable appetite"
                }
              }
            ]
          }
        ]
      },
      "request": {
        "method": "POST",
        "url": "Encounter"
      }
    },
    {
      "fullUrl": "urn:uuid:16128e1f-dc90-4cc0-8982-5918852d1441",
      "resource": {
        "resourceType": "Observation",
        "id": "16128e1f-dc90-4cc0-8982-5918852d1441",
        "status": "final",
        "category": [
          {
            "coding": [
              {
                "system": "http://terminology.hl7.org/CodeSystem/observation-category",
                "code": "exam",
                "display": "Exam"
              }
            ],
            "text": "Exam"
          }
        ],
        "code": {
          "coding": [
            {
              "system": "http://snomed.info/sct",
              "code": "247525002",
              "display": "Poor hair growth"
            }
          ],
          "text": "Poor growth"
        },
        "subject": {
          "reference": "Patient/9ebb244e-660a-47f5-88b5-dbfe246dfa3d"
        },
        "encounter": {
          "reference": "Encounter/a6b6e140-9198-4207-bff9-a57b5d869e7b"
        },
        "effectivePeriod": {
          "start": "2025-10-16"
        },
        "valueBoolean": true,
        "note": [
          {
            "text": "Definition: https://snomed.info/id/247525002"
          }
        ]
      },
      "request": {
        "method": "POST",
        "url": "Observation"
      }
    },
    {
      "fullUrl": "urn:uuid:0fc48d3e-808c-44c0-80a4-96ef1e9cd3d2",
      "resource": {
        "resourceType": "Observation",
        "id": "0fc48d3e-808c-44c0-80a4-96ef1e9cd3d2",
        "status": "final",
        "category": [
          {
            "coding": [
              {
                "system": "http://terminology.hl7.org/CodeSystem/observation-category",
                "code": "exam",
                "display": "Exam"
              }
            ],
            "text": "Exam"
          }
        ],
        "code": {
          "coding": [
            {
              "system": "http://snomed.info/sct",
              "code": "248290002",
              "display": "Developmental delay"
            }
          ],
          "text": "Mild developmental delay"
        },
        "subject": {
          "reference": "Patient/9ebb244e-660a-47f5-88b5-dbfe246dfa3d"
        },
        "encounter": {
          "reference": "Encounter/a6b6e140-9198-4207-bff9-a57b5d869e7b"
        },
        "effectivePeriod": {
          "start": "2025-10-16"
        },
        "valueBoolean": true,
        "note": [
          {
            "text": "Definition: https://snomed.info/id/248290002"
          }
        ]
      },
      "request": {
        "method": "POST",
        "url": "Observation"
      }
    },
    {
      "fullUrl": "urn:uuid:fef06b18-0f6f-4731-9560-f1ba5ed68b17",
      "resource": {
        "resourceType": "Observation",
        "id": "fef06b18-0f6f-4731-9560-f1ba5ed68b17",
        "status": "final",
        "category": [
          {
            "coding": [
              {
                "system": "http://terminology.hl7.org/CodeSystem/observation-category",
                "code": "exam",
                "display": "Exam"
              }
            ],
            "text": "Exam"
          }
        ],
        "code": {
          "coding": [
            {
              "system": "http://snomed.info/sct",
              "code": "249473004",
              "display": "Altered appetite"
            }
          ],
          "text": "Insatiable appetite"
        },
        "subject": {
          "reference": "Patient/9ebb244e-660a-47f5-88b5-dbfe246dfa3d"
        },
        "encounter": {
          "reference": "Encounter/a6b6e140-9198-4207-bff9-a57b5d869e7b"
        },
        "effectivePeriod": {
          "start": "2025-10-16"
        },
        "valueBoolean": true,
        "note": [
          {
            "text": "Definition: https://snomed.info/id/249473004"
          }
        ]
      },
      "request": {
        "method": "POST",
        "url": "Observation"
      }
    },
    {
      "fullUrl": "urn:uuid:cd4ed858-26b3-45b9-b3c8-5b964ca252d9",
      "resource": {
        "resourceType": "Observation",
        "id": "cd4ed858-26b3-45b9-b3c8-5b964ca252d9",
        "status": "final",
        "category": [
          {
            "coding": [
              {
                "system": "http://terminology.hl7.org/CodeSystem/observation-category",
                "code": "exam",
                "display": "Exam"
              }
            ],
            "text": "Exam"
          }
        ],
        "code": {
          "coding": [
            {
              "system": "http://snomed.info/sct",
              "code": "704200007",
              "display": "Acquired hypotonia"
            }
          ],
          "text": "Mild hypotonia"
        },
        "subject": {
          "reference": "Patient/9ebb244e-660a-47f5-88b5-dbfe246dfa3d"
        },
        "encounter": {
          "reference": "Encounter/a6b6e140-9198-4207-bff9-a57b5d869e7b"
        },
        "effectivePeriod": {
          "start": "2025-10-16"
        },
        "valueBoolean": true,
        "note": [
          {
            "text": "Definition: https://snomed.info/id/704200007"
          }
        ]
      },
      "request": {
        "method": "POST",
        "url": "Observation"
      }
    },
    {
      "fullUrl": "urn:uuid:f6e2d219-389b-474a-9079-78a30a88bd56",
      "resource": {
        "resourceType": "Observation",
        "id": "f6e2d219-389b-474a-9079-78a30a88bd56",
        "status": "final",
        "category": [
          {
            "coding": [
              {
                "system": "http://terminology.hl7.org/CodeSystem/observation-category",
                "code": "vital-signs",
                "display": "Vital Signs"
              }
            ],
            "text": "Vital Signs"
          }
        ],
        "code": {
          "coding": [
            {
              "system": "http://loinc.org",
              "code": "107102-6",
              "display": "BMI formula"
            }
          ],
          "text": "BMI"
        },
        "subject": {
          "reference": "Patient/9ebb244e-660a-47f5-88b5-dbfe246dfa3d"
        },
        "encounter": {
          "reference": "Encounter/a6b6e140-9198-4207-bff9-a57b5d869e7b"
        },
        "effectiveDateTime": "2025-10-16",
        "interpretation": [
          {
            "coding": [
              {
                "system": "http://terminology.hl7.org/CodeSystem/v3-ObservationInterpretation",
                "code": "H",
                "display": "High"
              }
            ],
            "text": "High"
          }
        ]
      },
      "request": {
        "method": "POST",
        "url": "Observation"
      }
    },
    {
      "fullUrl": "urn:uuid:842dfb5f-ab68-407b-ac9f-1451e82be890",
      "resource": {
        "resourceType": "Observation",
        "id": "842dfb5f-ab68-407b-ac9f-1451e82be890",
        "status": "final",
        "category": [
          {
            "coding": [
              {
                "system": "http://terminology.hl7.org/CodeSystem/observation-category",
                "code": "vital-signs",
                "display": "Vital Signs"
              }
            ],
            "text": "Vital Signs"
          }
        ],
        "code": {
          "coding": [
            {
              "system": "http://loinc.org",
              "code": "92998-4",
              "display": "Lower segment"
            }
          ],
          "text": "height"
        },
        "subject": {
          "reference": "Patient/9ebb244e-660a-47f5-88b5-dbfe246dfa3d"
        },
        "encounter": {
          "reference": "Encounter/a6b6e140-9198-4207-bff9-a57b5d869e7b"
        },
        "effectiveDateTime": "2025-10-16",
        "interpretation": [
          {
            "coding": [
              {
                "system": "http://terminology.hl7.org/CodeSystem/v3-ObservationInterpretation",
                "code": "L",
                "display": "Low"
              }
            ],
            "text": "Low"
          }
        ]
      },
      "request": {
        "method": "POST",
        "url": "Observation"
      }
    },
    {
      "fullUrl": "urn:uuid:3e360b54-d672-443a-8562-994379b51522",
      "resource": {
        "resourceType": "Observation",
        "id": "3e360b54-d672-443a-8562-994379b51522",
        "status": "final",
        "category": [
          {
            "coding": [
              {
                "system": "http://terminology.hl7.org/CodeSystem/observation-category",
                "code": "vital-signs",
                "display": "Vital Signs"
              }
            ],
            "text": "Vital Signs"
          }
        ],
        "code": {
          "coding": [
            {
              "system": "http://loinc.org",
              "code": "8337-8",
              "display": "Bdy weight special circumstances"
            }
          ],
          "text": "weight"
        },
        "subject": {
          "reference": "Patient/9ebb244e-660a-47f5-88b5-dbfe246dfa3d"
        },
        "encounter": {
          "reference": "Encounter/a6b6e140-9198-4207-bff9-a57b5d869e7b"
        },
        "effectiveDateTime": "2025-10-16",
        "interpretation": [
          {
            "coding": [
              {
                "system": "http://terminology.hl7.org/CodeSystem/v3-ObservationInterpretation",
                "code": "H",
                "display": "High"
              }
            ],
            "text": "High"
          }
        ]
      },
      "request": {
        "method": "POST",
        "url": "Observation"
      }
    }
  ]
}