{
  "resourceType": "Bundle",
  "type": "transaction",
  "entry": [
    {
      "fullUrl": "urn:uuid:e7810f3b-dd54-424b-abcd-b6fcc7eda27b",
      "resource": {
        "resourceType": "Patient",
        "id": "e7810f3b-dd54-424b-abcd-b6fcc7eda27b",
        "name": [
          {
            "family": "Thompson",
            "given": [
              "Sarah"
            ]
          }
        ],
        "gender": "female",
        "birthDate": "1990-07-12",
        "address": [
          {}
        ]
      },
      "request": {
        "method": "POST",
        "url": "Patient"
      }
    },
    {
      "fullUrl": "urn:uuid:3a4af22b-b6b5-4718-9de6-6a5c12fae3b6",
      "resource": {
        "resourceType": "Encounter",
        "id": "3a4af22b-b6b5-4718-9de6-6a5c12fae3b6",
        "identifier": [
          {
            "use": "temp",
            "value": "Encounter_Sarah Thompson_20251023095454"
          }
        ],
        "status": "completed",
        "priority": {
          "coding": [
            {
              "system": "http://snomed.info/sct",
              "code": "17621005",
              "display": "Normal"
            }
          ]
        },
        "type": [
          {
            "coding": [
              {
                "system": "http://snomed.info/sct",
                "code": "11429006",
                "display": "Consultation"
              }
            ]
          }
        ],
        "subject": {
          "reference": "Patient/e7810f3b-dd54-424b-abcd-b6fcc7eda27b",
          "display": "Sarah Thompson"
        },
        "reason": [
          {
            "value": [
              {
                "concept": {
                  "text": "intermittent episodes of burning pain in her hands and feet"
                }
              }
            ]
          }
        ]
      },
      "request": {
        "method": "POST",
        "url": "Encounter"
      }
    },
    {
      "fullUrl": "urn:uuid:afa6d1f6-f6f7-4f1f-a97f-726a5cc28ce6",
      "resource": {
        "resourceType": "Observation",
        "id": "afa6d1f6-f6f7-4f1f-a97f-726a5cc28ce6",
        "status": "final",
        "category": [
          {
            "coding": [
              {
                "system": "http://terminology.hl7.org/CodeSystem/observation-category",
                "code": "laboratory",
                "display": "Laboratory"
              }
            ],
            "text": "Laboratory"
          }
        ],
        "code": {
          "coding": [
            {
              "system": "http://loinc.org",
              "code": "62811-5",
              "display": "PhenX - urinary creatinine assay for kidney function protocol 141601"
            }
          ],
          "text": "Creatinine"
        },
        "subject": {
          "reference": "Patient/e7810f3b-dd54-424b-abcd-b6fcc7eda27b"
        },
        "encounter": {
          "reference": "Encounter/3a4af22b-b6b5-4718-9de6-6a5c12fae3b6"
        },
        "effectiveDateTime": "2025-10-16",
        "valueQuantity": {
          "value": 0.8,
          "unit": "milligrams per deciliter",
          "system": "http://unitsofmeasure.org",
          "code": "milligrams per deciliter"
        },
        "interpretation": [
          {
            "coding": [
              {
                "system": "http://terminology.hl7.org/CodeSystem/v3-ObservationInterpretation",
                "code": "N",
                "display": "Normal"
              }
            ]
          }
        ],
        "note": [
          {
            "text": "Definition: https://loinc.org/62811-5/"
          }
        ]
      },
      "request": {
        "method": "POST",
        "url": "Observation"
      }
    },
    {
      "fullUrl": "urn:uuid:a1502b0d-245a-4a77-9d7d-9805a904fb4a",
      "resource": {
        "resourceType": "Observation",
        "id": "a1502b0d-245a-4a77-9d7d-9805a904fb4a",
        "status": "final",
        "category": [
          {
            "coding": [
              {
                "system": "http://terminology.hl7.org/CodeSystem/observation-category",
                "code": "laboratory",
                "display": "Laboratory"
              }
            ],
            "text": "Laboratory"
          }
        ],
        "code": {
          "coding": [
            {
              "system": "http://loinc.org",
              "code": "18729-4",
              "display": "Urinalysis studies"
            }
          ],
          "text": "Urinalysis"
        },
        "subject": {
          "reference": "Patient/e7810f3b-dd54-424b-abcd-b6fcc7eda27b"
        },
        "encounter": {
          "reference": "Encounter/3a4af22b-b6b5-4718-9de6-6a5c12fae3b6"
        },
        "effectiveDateTime": "2025-10-16",
        "note": [
          {
            "text": "Definition: https://loinc.org/18729-4/"
          }
        ]
      },
      "request": {
        "method": "POST",
        "url": "Observation"
      }
    },
    {
      "fullUrl": "urn:uuid:fd8fd851-5bb7-4dd8-91b7-4d5c5f7b8f91",
      "resource": {
        "resourceType": "Observation",
        "id": "fd8fd851-5bb7-4dd8-91b7-4d5c5f7b8f91",
        "status": "final",
        "category": [
          {
            "coding": [
              {
                "system": "http://terminology.hl7.org/CodeSystem/observation-category",
                "code": "exam",
                "display": "Exam"
              }
            ],
            "text": "Exam"
          }
        ],
        "code": {
          "coding": [
            {
              "system": "http://snomed.info/sct",
              "code": "36031001",
              "display": "Burning feet"
            }
          ],
          "text": "Burning pain in hands and feet"
        },
        "subject": {
          "reference": "Patient/e7810f3b-dd54-424b-abcd-b6fcc7eda27b"
        },
        "encounter": {
          "reference": "Encounter/3a4af22b-b6b5-4718-9de6-6a5c12fae3b6"
        },
        "effectivePeriod": {
          "start": "2025-10-16"
        },
        "valueBoolean": true,
        "interpretation": [
          {
            "coding": [
              {
                "system": "http://terminology.hl7.org/CodeSystem/v3-ObservationInterpretation",
                "code": "A",
                "display": "Abnormal"
              }
            ],
            "text": "Abnormal"
          }
        ],
        "note": [
          {
            "text": "Definition: https://snomed.info/id/36031001"
          }
        ]
      },
      "request": {
        "method": "POST",
        "url": "Observation"
      }
    },
    {
      "fullUrl": "urn:uuid:f46e466d-4257-4524-8936-fc06afc7a1f1",
      "resource": {
        "resourceType": "Observation",
        "id": "f46e466d-4257-4524-8936-fc06afc7a1f1",
        "status": "final",
        "category": [
          {
            "coding": [
              {
                "system": "http://terminology.hl7.org/CodeSystem/observation-category",
                "code": "exam",
                "display": "Exam"
              }
            ],
            "text": "Exam"
          }
        ],
        "code": {
          "coding": [
            {
              "system": "http://snomed.info/sct",
              "code": "309838005",
              "display": "Emotional upset"
            }
          ],
          "text": "Gastrointestinal upset"
        },
        "subject": {
          "reference": "Patient/e7810f3b-dd54-424b-abcd-b6fcc7eda27b"
        },
        "encounter": {
          "reference": "Encounter/3a4af22b-b6b5-4718-9de6-6a5c12fae3b6"
        },
        "effectivePeriod": {
          "start": "2025-10-16"
        },
        "valueBoolean": true,
        "note": [
          {
            "text": "Definition: https://snomed.info/id/309838005"
          }
        ]
      },
      "request": {
        "method": "POST",
        "url": "Observation"
      }
    },
    {
      "fullUrl": "urn:uuid:271acfd9-3f37-4eef-b6db-cbb449678bd3",
      "resource": {
        "resourceType": "Observation",
        "id": "271acfd9-3f37-4eef-b6db-cbb449678bd3",
        "status": "final",
        "category": [
          {
            "coding": [
              {
                "system": "http://terminology.hl7.org/CodeSystem/observation-category",
                "code": "exam",
                "display": "Exam"
              }
            ],
            "text": "Exam"
          }
        ],
        "code": {
          "coding": [
            {
              "system": "http://snomed.info/sct",
              "code": "116289008",
              "display": "Abdominal bloating"
            }
          ],
          "text": "Abdominal bloating"
        },
        "subject": {
          "reference": "Patient/e7810f3b-dd54-424b-abcd-b6fcc7eda27b"
        },
        "encounter": {
          "reference": "Encounter/3a4af22b-b6b5-4718-9de6-6a5c12fae3b6"
        },
        "effectivePeriod": {
          "start": "2025-10-16"
        },
        "valueBoolean": true,
        "note": [
          {
            "text": "Definition: https://snomed.info/id/116289008"
          }
        ]
      },
      "request": {
        "method": "POST",
        "url": "Observation"
      }
    },
    {
      "fullUrl": "urn:uuid:136a3968-3b14-4ef6-948c-62c78c570f2e",
      "resource": {
        "resourceType": "Observation",
        "id": "136a3968-3b14-4ef6-948c-62c78c570f2e",
        "status": "final",
        "category": [
          {
            "coding": [
              {
                "system": "http://terminology.hl7.org/CodeSystem/observation-category",
                "code": "exam",
                "display": "Exam"
              }
            ],
            "text": "Exam"
          }
        ],
        "code": {
          "coding": [
            {
              "system": "http://snomed.info/sct",
              "code": "62315008",
              "display": "Diarrhea"
            }
          ],
          "text": "Diarrhea"
        },
        "subject": {
          "reference": "Patient/e7810f3b-dd54-424b-abcd-b6fcc7eda27b"
        },
        "encounter": {
          "reference": "Encounter/3a4af22b-b6b5-4718-9de6-6a5c12fae3b6"
        },
        "effectivePeriod": {
          "start": "2025-10-16"
        },
        "valueBoolean": true,
        "note": [
          {
            "text": "Definition: https://snomed.info/id/62315008"
          }
        ]
      },
      "request": {
        "method": "POST",
        "url": "Observation"
      }
    },
    {
      "fullUrl": "urn:uuid:7d68efd0-38c9-4be2-bc36-8a8ba87afbaa",
      "resource": {
        "resourceType": "Observation",
        "id": "7d68efd0-38c9-4be2-bc36-8a8ba87afbaa",
        "status": "final",
        "category": [
          {
            "coding": [
              {
                "system": "http://terminology.hl7.org/CodeSystem/observation-category",
                "code": "vital-signs",
                "display": "Vital Signs"
              }
            ],
            "text": "Vital Signs"
          }
        ],
        "code": {
          "coding": [
            {
              "system": "http://loinc.org",
              "code": "8310-5",
              "display": "Body temperature"
            }
          ],
          "text": "temperature"
        },
        "subject": {
          "reference": "Patient/e7810f3b-dd54-424b-abcd-b6fcc7eda27b"
        },
        "encounter": {
          "reference": "Encounter/3a4af22b-b6b5-4718-9de6-6a5c12fae3b6"
        },
        "effectiveDateTime": "2025-10-16",
        "valueQuantity": {
          "value": 36.8,
          "unit": "degrees Celsius",
          "system": "http://unitsofmeasure.org",
          "code": "degrees Celsius"
        },
        "interpretation": [
          {
            "coding": [
              {
                "system": "http://terminology.hl7.org/CodeSystem/v3-ObservationInterpretation",
                "code": "N",
                "display": "Normal"
              }
            ],
            "text": "Normal"
          }
        ]
      },
      "request": {
        "method": "POST",
        "url": "Observation"
      }
    },
    {
      "fullUrl": "urn:uuid:126b8e99-1518-4efc-bf9e-2cc78f926e82",
      "resource": {
        "resourceType": "Observation",
        "id": "126b8e99-1518-4efc-bf9e-2cc78f926e82",
        "status": "final",
        "category": [
          {
            "coding": [
              {
                "system": "http://terminology.hl7.org/CodeSystem/observation-category",
                "code": "vital-signs",
                "display": "Vital Signs"
              }
            ],
            "text": "Vital Signs"
          }
        ],
        "code": {
          "coding": [
            {
              "system": "http://loinc.org",
              "code": "62733-1",
              "display": "PhenX - respiratory - pulse oximetry - rest protocol 091101"
            }
          ],
          "text": "pulse"
        },
        "subject": {
          "reference": "Patient/e7810f3b-dd54-424b-abcd-b6fcc7eda27b"
        },
        "encounter": {
          "reference": "Encounter/3a4af22b-b6b5-4718-9de6-6a5c12fae3b6"
        },
        "effectiveDateTime": "2025-10-16",
        "valueQuantity": {
          "value": 72.0,
          "unit": "beats per minute",
          "system": "http://unitsofmeasure.org",
          "code": "beats per minute"
        },
        "interpretation": [
          {
            "coding": [
              {
                "system": "http://terminology.hl7.org/CodeSystem/v3-ObservationInterpretation",
                "code": "N",
                "display": "Normal"
              }
            ],
            "text": "Normal"
          }
        ]
      },
      "request": {
        "method": "POST",
        "url": "Observation"
      }
    },
    {
      "fullUrl": "urn:uuid:d08fc130-9b6a-4b7d-bc2f-b432bd187508",
      "resource": {
        "resourceType": "Observation",
        "id": "d08fc130-9b6a-4b7d-bc2f-b432bd187508",
        "status": "final",
        "category": [
          {
            "coding": [
              {
                "system": "http://terminology.hl7.org/CodeSystem/observation-category",
                "code": "vital-signs",
                "display": "Vital Signs"
              }
            ],
            "text": "Vital Signs"
          }
        ],
        "code": {
          "coding": [
            {
              "system": "http://loinc.org",
              "code": "18684-1",
              "display": "Blood pressure"
            }
          ],
          "text": "blood pressure"
        },
        "subject": {
          "reference": "Patient/e7810f3b-dd54-424b-abcd-b6fcc7eda27b"
        },
        "encounter": {
          "reference": "Encounter/3a4af22b-b6b5-4718-9de6-6a5c12fae3b6"
        },
        "effectiveDateTime": "2025-10-16",
        "interpretation": [
          {
            "coding": [
              {
                "system": "http://terminology.hl7.org/CodeSystem/v3-ObservationInterpretation",
                "code": "N",
                "display": "Normal"
              }
            ],
            "text": "Normal"
          }
        ]
      },
      "request": {
        "method": "POST",
        "url": "Observation"
      }
    },
    {
      "fullUrl": "urn:uuid:34b5121e-854a-4f27-8d99-52b0f4061fa7",
      "resource": {
        "resourceType": "Observation",
        "id": "34b5121e-854a-4f27-8d99-52b0f4061fa7",
        "status": "final",
        "category": [
          {
            "coding": [
              {
                "system": "http://terminology.hl7.org/CodeSystem/observation-category",
                "code": "vital-signs",
                "display": "Vital Signs"
              }
            ],
            "text": "Vital Signs"
          }
        ],
        "code": {
          "coding": [
            {
              "system": "http://loinc.org",
              "code": "9279-1",
              "display": "Resp rate"
            }
          ],
          "text": "respiratory rate"
        },
        "subject": {
          "reference": "Patient/e7810f3b-dd54-424b-abcd-b6fcc7eda27b"
        },
        "encounter": {
          "reference": "Encounter/3a4af22b-b6b5-4718-9de6-6a5c12fae3b6"
        },
        "effectiveDateTime": "2025-10-16",
        "valueQuantity": {
          "value": 16.0,
          "unit": "breaths per minute",
          "system": "http://unitsofmeasure.org",
          "code": "breaths per minute"
        },
        "interpretation": [
          {
            "coding": [
              {
                "system": "http://terminology.hl7.org/CodeSystem/v3-ObservationInterpretation",
                "code": "N",
                "display": "Normal"
              }
            ],
            "text": "Normal"
          }
        ]
      },
      "request": {
        "method": "POST",
        "url": "Observation"
      }
    },
    {
      "fullUrl": "urn:uuid:65244de9-bfc6-47dd-8f8b-91227d93ed90",
      "resource": {
        "resourceType": "Observation",
        "id": "65244de9-bfc6-47dd-8f8b-91227d93ed90",
        "status": "final",
        "category": [
          {
            "coding": [
              {
                "system": "http://terminology.hl7.org/CodeSystem/observation-category",
                "code": "vital-signs",
                "display": "Vital Signs"
              }
            ],
            "text": "Vital Signs"
          }
        ],
        "code": {
          "coding": [
            {
              "system": "http://loinc.org",
              "code": "8337-8",
              "display": "Bdy weight special circumstances"
            }
          ],
          "text": "weight"
        },
        "subject": {
          "reference": "Patient/e7810f3b-dd54-424b-abcd-b6fcc7eda27b"
        },
        "encounter": {
          "reference": "Encounter/3a4af22b-b6b5-4718-9de6-6a5c12fae3b6"
        },
        "effectiveDateTime": "2025-10-16",
        "valueQuantity": {
          "value": 62.0,
          "unit": "kilograms",
          "system": "http://unitsofmeasure.org",
          "code": "kilograms"
        },
        "interpretation": [
          {
            "coding": [
              {
                "system": "http://terminology.hl7.org/CodeSystem/v3-ObservationInterpretation",
                "code": "N",
                "display": "Normal"
              }
            ],
            "text": "Normal"
          }
        ]
      },
      "request": {
        "method": "POST",
        "url": "Observation"
      }
    },
    {
      "fullUrl": "urn:uuid:c9aa65f0-a6af-474f-a03f-7bf6e7400ee4",
      "resource": {
        "resourceType": "Observation",
        "id": "c9aa65f0-a6af-474f-a03f-7bf6e7400ee4",
        "status": "final",
        "category": [
          {
            "coding": [
              {
                "system": "http://terminology.hl7.org/CodeSystem/observation-category",
                "code": "vital-signs",
                "display": "Vital Signs"
              }
            ],
            "text": "Vital Signs"
          }
        ],
        "code": {
          "coding": [
            {
              "system": "http://loinc.org",
              "code": "92998-4",
              "display": "Lower segment"
            }
          ],
          "text": "height"
        },
        "subject": {
          "reference": "Patient/e7810f3b-dd54-424b-abcd-b6fcc7eda27b"
        },
        "encounter": {
          "reference": "Encounter/3a4af22b-b6b5-4718-9de6-6a5c12fae3b6"
        },
        "effectiveDateTime": "2025-10-16",
        "valueQuantity": {
          "value": 165.0,
          "unit": "centimeters",
          "system": "http://unitsofmeasure.org",
          "code": "centimeters"
        },
        "interpretation": [
          {
            "coding": [
              {
                "system": "http://terminology.hl7.org/CodeSystem/v3-ObservationInterpretation",
                "code": "N",
                "display": "Normal"
              }
            ],
            "text": "Normal"
          }
        ]
      },
      "request": {
        "method": "POST",
        "url": "Observation"
      }
    },
    {
      "fullUrl": "urn:uuid:4ce9ef26-07e4-4684-8a39-f8c60c7cfdd9",
      "resource": {
        "resourceType": "Observation",
        "id": "4ce9ef26-07e4-4684-8a39-f8c60c7cfdd9",
        "status": "final",
        "category": [
          {
            "coding": [
              {
                "system": "http://terminology.hl7.org/CodeSystem/observation-category",
                "code": "vital-signs",
                "display": "Vital Signs"
              }
            ],
            "text": "Vital Signs"
          }
        ],
        "code": {
          "coding": [
            {
              "system": "http://loinc.org",
              "code": "107102-6",
              "display": "BMI formula"
            }
          ],
          "text": "BMI"
        },
        "subject": {
          "reference": "Patient/e7810f3b-dd54-424b-abcd-b6fcc7eda27b"
        },
        "encounter": {
          "reference": "Encounter/3a4af22b-b6b5-4718-9de6-6a5c12fae3b6"
        },
        "effectiveDateTime": "2025-10-16",
        "interpretation": [
          {
            "coding": [
              {
                "system": "http://terminology.hl7.org/CodeSystem/v3-ObservationInterpretation",
                "code": "N",
                "display": "Normal"
              }
            ],
            "text": "Normal"
          }
        ]
      },
      "request": {
        "method": "POST",
        "url": "Observation"
      }
    },
    {
      "fullUrl": "urn:uuid:2df1f52f-0041-496d-ad0b-da342964db80",
      "resource": {
        "resourceType": "Observation",
        "id": "2df1f52f-0041-496d-ad0b-da342964db80",
        "status": "final",
        "category": [
          {
            "coding": [
              {
                "system": "http://terminology.hl7.org/CodeSystem/observation-category",
                "code": "vital-signs",
                "display": "Vital Signs"
              }
            ],
            "text": "Vital Signs"
          }
        ],
        "code": {
          "coding": [
            {
              "system": "http://loinc.org",
              "code": "2717-7",
              "display": "OxyHgb MFr Plas"
            }
          ],
          "text": "oxygen saturation"
        },
        "subject": {
          "reference": "Patient/e7810f3b-dd54-424b-abcd-b6fcc7eda27b"
        },
        "encounter": {
          "reference": "Encounter/3a4af22b-b6b5-4718-9de6-6a5c12fae3b6"
        },
        "effectiveDateTime": "2025-10-16",
        "valueQuantity": {
          "value": 98.0,
          "unit": "%",
          "system": "http://unitsofmeasure.org",
          "code": "%"
        },
        "interpretation": [
          {
            "coding": [
              {
                "system": "http://terminology.hl7.org/CodeSystem/v3-ObservationInterpretation",
                "code": "N",
                "display": "Normal"
              }
            ],
            "text": "Normal"
          }
        ]
      },
      "request": {
        "method": "POST",
        "url": "Observation"
      }
    },
    {
      "fullUrl": "urn:uuid:6496bb01-94f8-43a7-9b93-ef04b9c6c12f",
      "resource": {
        "resourceType": "MedicationStatement",
        "id": "6496bb01-94f8-43a7-9b93-ef04b9c6c12f",
        "status": "recorded",
        "medication": {
          "concept": {
            "coding": [
              {
                "system": "http://snomed.info/sct",
                "code": "387207008",
                "display": "Ibuprofen"
              }
            ],
            "text": "Ibuprofen"
          }
        },
        "subject": {
          "reference": "Patient/e7810f3b-dd54-424b-abcd-b6fcc7eda27b"
        },
        "encounter": {
          "reference": "Encounter/3a4af22b-b6b5-4718-9de6-6a5c12fae3b6"
        },
        "effectiveDateTime": "2025-10-16",
        "informationSource": [
          {
            "reference": "Patient/e7810f3b-dd54-424b-abcd-b6fcc7eda27b"
          }
        ],
        "dosage": [
          {
            "text": "400 milligrams as needed"
          }
        ],
        "adherence": {
          "code": {
            "coding": [
              {
                "system": "http://hl7.org/fhir/CodeSystem/medication-statement-adherence",
                "code": "taking",
                "display": "Taking"
              }
            ]
          }
        }
      },
      "request": {
        "method": "POST",
        "url": "MedicationStatement"
      }
    },
    {
      "fullUrl": "urn:uuid:5d93d249-d8c2-4cb3-b633-3da7698830e6",
      "resource": {
        "resourceType": "Encounter",
        "id": "5d93d249-d8c2-4cb3-b633-3da7698830e6",
        "identifier": [
          {
            "use": "temp",
            "value": "Encounter_Sarah Thompson_20251023095506"
          }
        ],
        "status": "completed",
        "priority": {
          "coding": [
            {
              "system": "http://snomed.info/sct",
              "code": "17621005",
              "display": "Normal"
            }
          ]
        },
        "type": [
          {
            "coding": [
              {
                "system": "http://snomed.info/sct",
                "code": "11429006",
                "display": "Consultation"
              }
            ]
          }
        ],
        "subject": {
          "reference": "Patient/e7810f3b-dd54-424b-abcd-b6fcc7eda27b",
          "display": "Sarah Thompson"
        },
        "reason": [
          {
            "value": [
              {
                "concept": {
                  "text": "routine check-up"
                }
              }
            ]
          }
        ]
      },
      "request": {
        "method": "POST",
        "url": "Encounter"
      }
    },
    {
      "fullUrl": "urn:uuid:ddb02ff8-1b52-4c9b-8fa1-d0128de32921",
      "resource": {
        "resourceType": "Observation",
        "id": "ddb02ff8-1b52-4c9b-8fa1-d0128de32921",
        "status": "final",
        "category": [
          {
            "coding": [
              {
                "system": "http://terminology.hl7.org/CodeSystem/observation-category",
                "code": "vital-signs",
                "display": "Vital Signs"
              }
            ],
            "text": "Vital Signs"
          }
        ],
        "code": {
          "coding": [
            {
              "system": "http://loinc.org",
              "code": "18684-1",
              "display": "Blood pressure"
            }
          ],
          "text": "blood pressure"
        },
        "subject": {
          "reference": "Patient/e7810f3b-dd54-424b-abcd-b6fcc7eda27b"
        },
        "encounter": {
          "reference": "Encounter/5d93d249-d8c2-4cb3-b633-3da7698830e6"
        },
        "effectiveDateTime": "2025-08-16"
      },
      "request": {
        "method": "POST",
        "url": "Observation"
      }
    },
    {
      "fullUrl": "urn:uuid:b1576c4f-3f66-44f2-8bcd-3fac4e15677a",
      "resource": {
        "resourceType": "List",
        "id": "b1576c4f-3f66-44f2-8bcd-3fac4e15677a",
        "contained": [
          {
            "resourceType": "FamilyMemberHistory",
            "id": "fmh-2",
            "status": "completed",
            "patient": {
              "reference": "Patient/e7810f3b-dd54-424b-abcd-b6fcc7eda27b"
            },
            "relationship": {
              "coding": [
                {
                  "system": "http://snomed.info/sct",
                  "code": "66839005",
                  "display": "Father"
                }
              ]
            },
            "deceasedBoolean": false,
            "condition": []
          }
        ],
        "status": "current",
        "mode": "snapshot",
        "code": {
          "coding": [
            {
              "system": "http://loinc.org",
              "code": "8670-2",
              "display": "History of family member diseases"
            }
          ]
        },
        "subject": [
          {
            "reference": "Patient/e7810f3b-dd54-424b-abcd-b6fcc7eda27b"
          }
        ],
        "note": [
          {
            "text": "Both parents are alive and healthy, with no known chronic conditions"
          }
        ],
        "entry": [
          {
            "item": {
              "reference": "#fmh-2"
            }
          }
        ]
      },
      "request": {
        "method": "POST",
        "url": "FamilyMemberHistory"
      }
    }
  ]
}