{
  "resourceType": "Bundle",
  "type": "transaction",
  "entry": [
    {
      "fullUrl": "urn:uuid:f9ef91e9-88de-4f78-b115-8d6bd96c03ef",
      "resource": {
        "resourceType": "Patient",
        "id": "f9ef91e9-88de-4f78-b115-8d6bd96c03ef",
        "name": [
          {
            "family": "Zaitsev",
            "given": [
              "Alexander"
            ]
          }
        ],
        "gender": "male",
        "birthDate": "1997-07-04",
        "address": [
          {}
        ]
      },
      "request": {
        "method": "POST",
        "url": "Patient"
      }
    },
    {
      "fullUrl": "urn:uuid:aad212f1-de49-4264-b273-02af4903ce10",
      "resource": {
        "resourceType": "Encounter",
        "id": "aad212f1-de49-4264-b273-02af4903ce10",
        "identifier": [
          {
            "use": "temp",
            "value": "Encounter_Alexander Zaitsev_20251020131910"
          }
        ],
        "status": "completed",
        "priority": {
          "coding": [
            {
              "system": "http://snomed.info/sct",
              "code": "17621005",
              "display": "Normal"
            }
          ]
        },
        "type": [
          {
            "coding": [
              {
                "system": "http://snomed.info/sct",
                "code": "11429006",
                "display": "Consultation"
              }
            ]
          }
        ],
        "subject": {
          "reference": "Patient/f9ef91e9-88de-4f78-b115-8d6bd96c03ef",
          "display": "Alexander Zaitsev"
        },
        "reason": [
          {
            "value": [
              {
                "concept": {
                  "text": "recurrent episodes of fever, chills, and pain in his ankles and wrists"
                }
              }
            ]
          }
        ]
      },
      "request": {
        "method": "POST",
        "url": "Encounter"
      }
    },
    {
      "fullUrl": "urn:uuid:107c4d59-eb78-482f-91fa-60f955ad1e36",
      "resource": {
        "resourceType": "Observation",
        "id": "107c4d59-eb78-482f-91fa-60f955ad1e36",
        "status": "final",
        "category": [
          {
            "coding": [
              {
                "system": "http://terminology.hl7.org/CodeSystem/observation-category",
                "code": "laboratory",
                "display": "Laboratory"
              }
            ],
            "text": "Laboratory"
          }
        ],
        "code": {
          "coding": [
            {
              "system": "http://loinc.org",
              "code": "35648-5",
              "display": "CRP Quint SerPl Qn HS"
            }
          ],
          "text": "C-Reactive Protein (CRP)"
        },
        "subject": {
          "reference": "Patient/f9ef91e9-88de-4f78-b115-8d6bd96c03ef"
        },
        "encounter": {
          "reference": "Encounter/aad212f1-de49-4264-b273-02af4903ce10"
        },
        "effectiveDateTime": "2025-10-16",
        "interpretation": [
          {
            "coding": [
              {
                "system": "http://terminology.hl7.org/CodeSystem/v3-ObservationInterpretation",
                "code": "H",
                "display": "High"
              }
            ]
          }
        ],
        "note": [
          {
            "text": "Definition: https://loinc.org/35648-5/"
          }
        ]
      },
      "request": {
        "method": "POST",
        "url": "Observation"
      }
    },
    {
      "fullUrl": "urn:uuid:4a753386-362b-4287-b982-1620ad374233",
      "resource": {
        "resourceType": "Observation",
        "id": "4a753386-362b-4287-b982-1620ad374233",
        "status": "final",
        "category": [
          {
            "coding": [
              {
                "system": "http://terminology.hl7.org/CodeSystem/observation-category",
                "code": "laboratory",
                "display": "Laboratory"
              }
            ],
            "text": "Laboratory"
          }
        ],
        "code": {
          "coding": [
            {
              "system": "http://loinc.org",
              "code": "unknown",
              "display": "Erythrocyte Sedimentation Rate (ESR)"
            }
          ],
          "text": "Erythrocyte Sedimentation Rate (ESR)"
        },
        "subject": {
          "reference": "Patient/f9ef91e9-88de-4f78-b115-8d6bd96c03ef"
        },
        "encounter": {
          "reference": "Encounter/aad212f1-de49-4264-b273-02af4903ce10"
        },
        "effectiveDateTime": "2025-10-16",
        "interpretation": [
          {
            "coding": [
              {
                "system": "http://terminology.hl7.org/CodeSystem/v3-ObservationInterpretation",
                "code": "H",
                "display": "High"
              }
            ]
          }
        ]
      },
      "request": {
        "method": "POST",
        "url": "Observation"
      }
    },
    {
      "fullUrl": "urn:uuid:0d250dca-01e6-49a4-843a-54b20526c51f",
      "resource": {
        "resourceType": "Observation",
        "id": "0d250dca-01e6-49a4-843a-54b20526c51f",
        "status": "final",
        "category": [
          {
            "coding": [
              {
                "system": "http://terminology.hl7.org/CodeSystem/observation-category",
                "code": "exam",
                "display": "Exam"
              }
            ],
            "text": "Exam"
          }
        ],
        "code": {
          "coding": [
            {
              "system": "http://snomed.info/sct",
              "code": "386661006",
              "display": "Fever"
            }
          ],
          "text": "Fever"
        },
        "subject": {
          "reference": "Patient/f9ef91e9-88de-4f78-b115-8d6bd96c03ef"
        },
        "encounter": {
          "reference": "Encounter/aad212f1-de49-4264-b273-02af4903ce10"
        },
        "effectivePeriod": {
          "start": "2025-10-16"
        },
        "valueBoolean": true,
        "note": [
          {
            "text": "Definition: https://snomed.info/id/386661006"
          }
        ]
      },
      "request": {
        "method": "POST",
        "url": "Observation"
      }
    },
    {
      "fullUrl": "urn:uuid:cadc28e7-e8de-4e79-9eac-316efc73a30f",
      "resource": {
        "resourceType": "Observation",
        "id": "cadc28e7-e8de-4e79-9eac-316efc73a30f",
        "status": "final",
        "category": [
          {
            "coding": [
              {
                "system": "http://terminology.hl7.org/CodeSystem/observation-category",
                "code": "exam",
                "display": "Exam"
              }
            ],
            "text": "Exam"
          }
        ],
        "code": {
          "coding": [
            {
              "system": "http://snomed.info/sct",
              "code": "274640006",
              "display": "Fever with chills"
            }
          ],
          "text": "Chills"
        },
        "subject": {
          "reference": "Patient/f9ef91e9-88de-4f78-b115-8d6bd96c03ef"
        },
        "encounter": {
          "reference": "Encounter/aad212f1-de49-4264-b273-02af4903ce10"
        },
        "effectivePeriod": {
          "start": "2025-10-16"
        },
        "valueBoolean": true,
        "note": [
          {
            "text": "Definition: https://snomed.info/id/274640006"
          }
        ]
      },
      "request": {
        "method": "POST",
        "url": "Observation"
      }
    },
    {
      "fullUrl": "urn:uuid:004911e5-a7f5-42a1-840e-ada9fdcca816",
      "resource": {
        "resourceType": "Observation",
        "id": "004911e5-a7f5-42a1-840e-ada9fdcca816",
        "status": "final",
        "category": [
          {
            "coding": [
              {
                "system": "http://terminology.hl7.org/CodeSystem/observation-category",
                "code": "exam",
                "display": "Exam"
              }
            ],
            "text": "Exam"
          }
        ],
        "code": {
          "coding": [
            {
              "system": "http://snomed.info/sct",
              "code": "69948000",
              "display": "Both ankles"
            }
          ],
          "text": "Pain in ankles and wrists"
        },
        "subject": {
          "reference": "Patient/f9ef91e9-88de-4f78-b115-8d6bd96c03ef"
        },
        "encounter": {
          "reference": "Encounter/aad212f1-de49-4264-b273-02af4903ce10"
        },
        "effectivePeriod": {
          "start": "2025-10-16"
        },
        "valueBoolean": true,
        "note": [
          {
            "text": "Definition: https://snomed.info/id/69948000"
          }
        ]
      },
      "request": {
        "method": "POST",
        "url": "Observation"
      }
    },
    {
      "fullUrl": "urn:uuid:2bfa1997-5e95-4276-af6d-01fc2378445b",
      "resource": {
        "resourceType": "Observation",
        "id": "2bfa1997-5e95-4276-af6d-01fc2378445b",
        "status": "final",
        "category": [
          {
            "coding": [
              {
                "system": "http://terminology.hl7.org/CodeSystem/observation-category",
                "code": "exam",
                "display": "Exam"
              }
            ],
            "text": "Exam"
          }
        ],
        "code": {
          "coding": [
            {
              "system": "http://snomed.info/sct",
              "code": "249898006",
              "display": "Slow on legs"
            }
          ],
          "text": "Migratory rash on legs"
        },
        "subject": {
          "reference": "Patient/f9ef91e9-88de-4f78-b115-8d6bd96c03ef"
        },
        "encounter": {
          "reference": "Encounter/aad212f1-de49-4264-b273-02af4903ce10"
        },
        "effectivePeriod": {
          "start": "2025-10-16"
        },
        "valueBoolean": true,
        "note": [
          {
            "text": "Definition: https://snomed.info/id/249898006"
          }
        ]
      },
      "request": {
        "method": "POST",
        "url": "Observation"
      }
    },
    {
      "fullUrl": "urn:uuid:09ac105d-1db8-47fd-9e84-34b0078b2fd1",
      "resource": {
        "resourceType": "List",
        "id": "09ac105d-1db8-47fd-9e84-34b0078b2fd1",
        "contained": [
          {
            "resourceType": "FamilyMemberHistory",
            "id": "fmh-1",
            "status": "completed",
            "patient": {
              "reference": "Patient/f9ef91e9-88de-4f78-b115-8d6bd96c03ef"
            },
            "relationship": {
              "coding": [
                {
                  "system": "http://snomed.info/sct",
                  "code": "736454006",
                  "display": "Maternal aunt"
                }
              ]
            },
            "deceasedBoolean": false,
            "condition": [
              {
                "code": {
                  "coding": [
                    {
                      "system": "http://snomed.info/sct",
                      "code": "439469002",
                      "display": "Recurrent abdominal pain"
                    }
                  ]
                }
              }
            ]
          }
        ],
        "status": "current",
        "mode": "snapshot",
        "code": {
          "coding": [
            {
              "system": "http://loinc.org",
              "code": "8670-2",
              "display": "History of family member diseases"
            }
          ]
        },
        "subject": [
          {
            "reference": "Patient/f9ef91e9-88de-4f78-b115-8d6bd96c03ef"
          }
        ],
        "entry": [
          {
            "item": {
              "reference": "#fmh-1"
            }
          }
        ]
      },
      "request": {
        "method": "POST",
        "url": "FamilyMemberHistory"
      }
    }
  ]
}