{
  "resourceType": "Bundle",
  "type": "transaction",
  "entry": [
    {
      "fullUrl": "urn:uuid:38f19ba6-a298-4eda-a46d-4baf3916c9da",
      "resource": {
        "resourceType": "Patient",
        "id": "38f19ba6-a298-4eda-a46d-4baf3916c9da",
        "name": [
          {
            "family": "Ivanova",
            "given": [
              "Svetlana"
            ]
          }
        ],
        "gender": "female",
        "address": [
          {}
        ]
      },
      "request": {
        "method": "POST",
        "url": "Patient"
      }
    },
    {
      "fullUrl": "urn:uuid:13bfcc6f-d280-48ec-a3a3-ea8a9eabf13b",
      "resource": {
        "resourceType": "Encounter",
        "id": "13bfcc6f-d280-48ec-a3a3-ea8a9eabf13b",
        "identifier": [
          {
            "use": "temp",
            "value": "Encounter_Svetlana Ivanova_20251017182848"
          }
        ],
        "status": "completed",
        "priority": {
          "coding": [
            {
              "system": "http://snomed.info/sct",
              "code": "17621005",
              "display": "Normal"
            }
          ]
        },
        "type": [
          {
            "coding": [
              {
                "system": "http://snomed.info/sct",
                "code": "11429006",
                "display": "Consultation"
              }
            ]
          }
        ],
        "subject": {
          "reference": "Patient/38f19ba6-a298-4eda-a46d-4baf3916c9da",
          "display": "Svetlana Ivanova"
        },
        "reason": [
          {
            "value": [
              {
                "concept": {
                  "text": "recurrent episodes of fever, arthralgia, and a maculopapular rash on her forearms"
                }
              }
            ]
          }
        ]
      },
      "request": {
        "method": "POST",
        "url": "Encounter"
      }
    },
    {
      "fullUrl": "urn:uuid:94c27e63-c79f-4753-bb16-38588c69673c",
      "resource": {
        "resourceType": "Observation",
        "id": "94c27e63-c79f-4753-bb16-38588c69673c",
        "status": "final",
        "category": [
          {
            "coding": [
              {
                "system": "http://terminology.hl7.org/CodeSystem/observation-category",
                "code": "laboratory",
                "display": "Laboratory"
              }
            ],
            "text": "Laboratory"
          }
        ],
        "code": {
          "coding": [
            {
              "system": "http://loinc.org",
              "code": "unknown",
              "display": "Erythrocyte Sedimentation Rate (ESR)"
            }
          ],
          "text": "Erythrocyte Sedimentation Rate (ESR)"
        },
        "subject": {
          "reference": "Patient/38f19ba6-a298-4eda-a46d-4baf3916c9da"
        },
        "encounter": {
          "reference": "Encounter/13bfcc6f-d280-48ec-a3a3-ea8a9eabf13b"
        },
        "effectiveDateTime": "2025-10-16",
        "interpretation": [
          {
            "coding": [
              {
                "system": "http://terminology.hl7.org/CodeSystem/v3-ObservationInterpretation",
                "code": "H",
                "display": "High"
              }
            ]
          }
        ]
      },
      "request": {
        "method": "POST",
        "url": "Observation"
      }
    },
    {
      "fullUrl": "urn:uuid:2c5e45e9-c084-47b5-b9bb-1ea3f09fe735",
      "resource": {
        "resourceType": "Observation",
        "id": "2c5e45e9-c084-47b5-b9bb-1ea3f09fe735",
        "status": "final",
        "category": [
          {
            "coding": [
              {
                "system": "http://terminology.hl7.org/CodeSystem/observation-category",
                "code": "laboratory",
                "display": "Laboratory"
              }
            ],
            "text": "Laboratory"
          }
        ],
        "code": {
          "coding": [
            {
              "system": "http://loinc.org",
              "code": "35648-5",
              "display": "CRP Quint SerPl Qn HS"
            }
          ],
          "text": "C-Reactive Protein (CRP)"
        },
        "subject": {
          "reference": "Patient/38f19ba6-a298-4eda-a46d-4baf3916c9da"
        },
        "encounter": {
          "reference": "Encounter/13bfcc6f-d280-48ec-a3a3-ea8a9eabf13b"
        },
        "effectiveDateTime": "2025-10-16",
        "interpretation": [
          {
            "coding": [
              {
                "system": "http://terminology.hl7.org/CodeSystem/v3-ObservationInterpretation",
                "code": "H",
                "display": "High"
              }
            ]
          }
        ],
        "note": [
          {
            "text": "Definition: https://loinc.org/35648-5/"
          }
        ]
      },
      "request": {
        "method": "POST",
        "url": "Observation"
      }
    },
    {
      "fullUrl": "urn:uuid:696fd848-12ec-4b2c-b4d9-69513c765a7a",
      "resource": {
        "resourceType": "Observation",
        "id": "696fd848-12ec-4b2c-b4d9-69513c765a7a",
        "status": "final",
        "category": [
          {
            "coding": [
              {
                "system": "http://terminology.hl7.org/CodeSystem/observation-category",
                "code": "exam",
                "display": "Exam"
              }
            ],
            "text": "Exam"
          }
        ],
        "code": {
          "coding": [
            {
              "system": "http://snomed.info/sct",
              "code": "386661006",
              "display": "Fever"
            }
          ],
          "text": "Fever"
        },
        "subject": {
          "reference": "Patient/38f19ba6-a298-4eda-a46d-4baf3916c9da"
        },
        "encounter": {
          "reference": "Encounter/13bfcc6f-d280-48ec-a3a3-ea8a9eabf13b"
        },
        "effectivePeriod": {
          "start": "2025-10-16"
        },
        "valueBoolean": true,
        "note": [
          {
            "text": "Definition: https://snomed.info/id/386661006"
          }
        ]
      },
      "request": {
        "method": "POST",
        "url": "Observation"
      }
    },
    {
      "fullUrl": "urn:uuid:9858bfcd-6bc1-4cb1-b32f-100bed8545b1",
      "resource": {
        "resourceType": "Observation",
        "id": "9858bfcd-6bc1-4cb1-b32f-100bed8545b1",
        "status": "final",
        "category": [
          {
            "coding": [
              {
                "system": "http://terminology.hl7.org/CodeSystem/observation-category",
                "code": "exam",
                "display": "Exam"
              }
            ],
            "text": "Exam"
          }
        ],
        "code": {
          "coding": [
            {
              "system": "http://snomed.info/sct",
              "code": "277138006",
              "display": "Rubella arthralgia"
            }
          ],
          "text": "Arthralgia"
        },
        "subject": {
          "reference": "Patient/38f19ba6-a298-4eda-a46d-4baf3916c9da"
        },
        "encounter": {
          "reference": "Encounter/13bfcc6f-d280-48ec-a3a3-ea8a9eabf13b"
        },
        "effectivePeriod": {
          "start": "2025-10-16"
        },
        "valueBoolean": true,
        "note": [
          {
            "text": "Definition: https://snomed.info/id/277138006"
          }
        ]
      },
      "request": {
        "method": "POST",
        "url": "Observation"
      }
    },
    {
      "fullUrl": "urn:uuid:fd2bbf3e-5b16-4138-b577-1c3f7583ae51",
      "resource": {
        "resourceType": "Observation",
        "id": "fd2bbf3e-5b16-4138-b577-1c3f7583ae51",
        "status": "final",
        "category": [
          {
            "coding": [
              {
                "system": "http://terminology.hl7.org/CodeSystem/observation-category",
                "code": "exam",
                "display": "Exam"
              }
            ],
            "text": "Exam"
          }
        ],
        "code": {
          "coding": [
            {
              "system": "http://snomed.info/sct",
              "code": "47725002",
              "display": "Maculopapular rash"
            }
          ],
          "text": "Maculopapular rash"
        },
        "subject": {
          "reference": "Patient/38f19ba6-a298-4eda-a46d-4baf3916c9da"
        },
        "encounter": {
          "reference": "Encounter/13bfcc6f-d280-48ec-a3a3-ea8a9eabf13b"
        },
        "effectivePeriod": {
          "start": "2025-10-16"
        },
        "valueBoolean": true,
        "note": [
          {
            "text": "Definition: https://snomed.info/id/47725002"
          }
        ]
      },
      "request": {
        "method": "POST",
        "url": "Observation"
      }
    },
    {
      "fullUrl": "urn:uuid:5455c0e6-9a70-4948-b995-d349b320fccc",
      "resource": {
        "resourceType": "Observation",
        "id": "5455c0e6-9a70-4948-b995-d349b320fccc",
        "status": "final",
        "category": [
          {
            "coding": [
              {
                "system": "http://terminology.hl7.org/CodeSystem/observation-category",
                "code": "exam",
                "display": "Exam"
              }
            ],
            "text": "Exam"
          }
        ],
        "code": {
          "coding": [
            {
              "system": "http://snomed.info/sct",
              "code": "126662008",
              "display": "Redness of throat"
            }
          ],
          "text": "Eye redness"
        },
        "subject": {
          "reference": "Patient/38f19ba6-a298-4eda-a46d-4baf3916c9da"
        },
        "encounter": {
          "reference": "Encounter/13bfcc6f-d280-48ec-a3a3-ea8a9eabf13b"
        },
        "effectivePeriod": {
          "start": "2025-10-16"
        },
        "valueBoolean": true,
        "note": [
          {
            "text": "Definition: https://snomed.info/id/126662008"
          }
        ]
      },
      "request": {
        "method": "POST",
        "url": "Observation"
      }
    },
    {
      "fullUrl": "urn:uuid:414fb5ce-d956-445e-8a97-08a73e6fbb7d",
      "resource": {
        "resourceType": "Observation",
        "id": "414fb5ce-d956-445e-8a97-08a73e6fbb7d",
        "status": "final",
        "category": [
          {
            "coding": [
              {
                "system": "http://terminology.hl7.org/CodeSystem/observation-category",
                "code": "exam",
                "display": "Exam"
              }
            ],
            "text": "Exam"
          }
        ],
        "code": {
          "coding": [
            {
              "system": "http://snomed.info/sct",
              "code": "84445001",
              "display": "Joint stiffness"
            }
          ],
          "text": "Joint stiffness"
        },
        "subject": {
          "reference": "Patient/38f19ba6-a298-4eda-a46d-4baf3916c9da"
        },
        "encounter": {
          "reference": "Encounter/13bfcc6f-d280-48ec-a3a3-ea8a9eabf13b"
        },
        "effectivePeriod": {
          "start": "2025-10-16"
        },
        "valueBoolean": true,
        "note": [
          {
            "text": "Definition: https://snomed.info/id/84445001"
          }
        ]
      },
      "request": {
        "method": "POST",
        "url": "Observation"
      }
    },
    {
      "fullUrl": "urn:uuid:a3bf0d1e-df2c-481d-8029-89b166f12a3e",
      "resource": {
        "resourceType": "Observation",
        "id": "a3bf0d1e-df2c-481d-8029-89b166f12a3e",
        "status": "final",
        "category": [
          {
            "coding": [
              {
                "system": "http://terminology.hl7.org/CodeSystem/observation-category",
                "code": "vital-signs",
                "display": "Vital Signs"
              }
            ],
            "text": "Vital Signs"
          }
        ],
        "code": {
          "coding": [
            {
              "system": "http://loinc.org",
              "code": "8310-5",
              "display": "Body temperature"
            }
          ],
          "text": "Body Temperature"
        },
        "subject": {
          "reference": "Patient/38f19ba6-a298-4eda-a46d-4baf3916c9da"
        },
        "encounter": {
          "reference": "Encounter/13bfcc6f-d280-48ec-a3a3-ea8a9eabf13b"
        },
        "effectiveDateTime": "2025-10-16",
        "valueQuantity": {
          "value": 38.5,
          "unit": "°C",
          "system": "http://unitsofmeasure.org",
          "code": "°C"
        },
        "interpretation": [
          {
            "coding": [
              {
                "system": "http://terminology.hl7.org/CodeSystem/v3-ObservationInterpretation",
                "code": "H",
                "display": "High"
              }
            ],
            "text": "High"
          }
        ]
      },
      "request": {
        "method": "POST",
        "url": "Observation"
      }
    },
    {
      "fullUrl": "urn:uuid:2ad08a85-4cb7-43cc-9aec-447fecec4fac",
      "resource": {
        "resourceType": "List",
        "id": "2ad08a85-4cb7-43cc-9aec-447fecec4fac",
        "contained": [
          {
            "resourceType": "FamilyMemberHistory",
            "id": "fmh-1",
            "status": "completed",
            "patient": {
              "reference": "Patient/38f19ba6-a298-4eda-a46d-4baf3916c9da"
            },
            "relationship": {
              "coding": [
                {
                  "system": "http://snomed.info/sct",
                  "code": "719759007",
                  "display": "Maternal cousin"
                }
              ]
            },
            "deceasedBoolean": false,
            "condition": [
              {
                "code": {
                  "coding": [
                    {
                      "system": "http://snomed.info/sct",
                      "code": "42111000175103",
                      "display": "Autoinflammatory disease"
                    }
                  ]
                }
              }
            ]
          }
        ],
        "status": "current",
        "mode": "snapshot",
        "code": {
          "coding": [
            {
              "system": "http://loinc.org",
              "code": "8670-2",
              "display": "History of family member diseases"
            }
          ]
        },
        "subject": [
          {
            "reference": "Patient/38f19ba6-a298-4eda-a46d-4baf3916c9da"
          }
        ],
        "entry": [
          {
            "item": {
              "reference": "#fmh-1"
            }
          }
        ]
      },
      "request": {
        "method": "POST",
        "url": "FamilyMemberHistory"
      }
    }
  ]
}