{
  "resourceType": "Bundle",
  "type": "transaction",
  "entry": [
    {
      "fullUrl": "urn:uuid:3036b139-c408-42ec-a83e-9505c0dee5e1",
      "resource": {
        "resourceType": "Patient",
        "id": "3036b139-c408-42ec-a83e-9505c0dee5e1",
        "name": [
          {
            "family": "F.",
            "given": [
              "Elena"
            ]
          }
        ],
        "gender": "female",
        "address": [
          {}
        ]
      },
      "request": {
        "method": "POST",
        "url": "Patient"
      }
    },
    {
      "fullUrl": "urn:uuid:3315889c-0960-4590-9a3d-3c4f112ee0a6",
      "resource": {
        "resourceType": "Encounter",
        "id": "3315889c-0960-4590-9a3d-3c4f112ee0a6",
        "identifier": [
          {
            "use": "temp",
            "value": "Encounter_Elena F._20251017122321"
          }
        ],
        "status": "completed",
        "priority": {
          "coding": [
            {
              "system": "http://snomed.info/sct",
              "code": "17621005",
              "display": "Normal"
            }
          ]
        },
        "type": [
          {
            "coding": [
              {
                "system": "http://snomed.info/sct",
                "code": "11429006",
                "display": "Consultation"
              }
            ]
          }
        ],
        "subject": {
          "reference": "Patient/3036b139-c408-42ec-a83e-9505c0dee5e1",
          "display": "Elena F."
        },
        "reason": [
          {
            "value": [
              {
                "concept": {
                  "text": "recurrent low-grade fevers, urticarial rash, and arthralgia"
                }
              }
            ]
          }
        ]
      },
      "request": {
        "method": "POST",
        "url": "Encounter"
      }
    },
    {
      "fullUrl": "urn:uuid:09c4f0d5-375e-4986-8218-660bb97156e9",
      "resource": {
        "resourceType": "Observation",
        "id": "09c4f0d5-375e-4986-8218-660bb97156e9",
        "status": "final",
        "category": [
          {
            "coding": [
              {
                "system": "http://terminology.hl7.org/CodeSystem/observation-category",
                "code": "laboratory",
                "display": "Laboratory"
              }
            ],
            "text": "Laboratory"
          }
        ],
        "code": {
          "coding": [
            {
              "system": "http://loinc.org",
              "code": "35648-5",
              "display": "CRP Quint SerPl Qn HS"
            }
          ],
          "text": "C-Reactive Protein (CRP)"
        },
        "subject": {
          "reference": "Patient/3036b139-c408-42ec-a83e-9505c0dee5e1"
        },
        "encounter": {
          "reference": "Encounter/3315889c-0960-4590-9a3d-3c4f112ee0a6"
        },
        "effectiveDateTime": "2025-10-17T10:23:22.115091Z",
        "valueQuantity": {
          "value": 20.0,
          "unit": "mg/L",
          "system": "http://unitsofmeasure.org",
          "code": "mg/L"
        },
        "interpretation": [
          {
            "coding": [
              {
                "system": "http://terminology.hl7.org/CodeSystem/v3-ObservationInterpretation",
                "code": "H",
                "display": "High"
              }
            ]
          }
        ],
        "note": [
          {
            "text": "Definition: https://loinc.org/35648-5/"
          }
        ]
      },
      "request": {
        "method": "POST",
        "url": "Observation"
      }
    },
    {
      "fullUrl": "urn:uuid:77afc6e6-2b04-45cd-bbb6-01916f022b9c",
      "resource": {
        "resourceType": "Observation",
        "id": "77afc6e6-2b04-45cd-bbb6-01916f022b9c",
        "status": "final",
        "category": [
          {
            "coding": [
              {
                "system": "http://terminology.hl7.org/CodeSystem/observation-category",
                "code": "laboratory",
                "display": "Laboratory"
              }
            ],
            "text": "Laboratory"
          }
        ],
        "code": {
          "coding": [
            {
              "system": "http://loinc.org",
              "code": "89015-2",
              "display": "Pure tone threshold audiometry panel"
            }
          ],
          "text": "Audiometry"
        },
        "subject": {
          "reference": "Patient/3036b139-c408-42ec-a83e-9505c0dee5e1"
        },
        "encounter": {
          "reference": "Encounter/3315889c-0960-4590-9a3d-3c4f112ee0a6"
        },
        "effectiveDateTime": "2025-10-17T10:23:22.319731Z",
        "interpretation": [
          {
            "coding": [
              {
                "system": "http://terminology.hl7.org/CodeSystem/v3-ObservationInterpretation",
                "code": "A",
                "display": "Abnormal"
              }
            ]
          }
        ],
        "note": [
          {
            "text": "Definition: https://loinc.org/89015-2/"
          }
        ]
      },
      "request": {
        "method": "POST",
        "url": "Observation"
      }
    },
    {
      "fullUrl": "urn:uuid:5f42ea21-a933-4220-a80b-81afccae52f9",
      "resource": {
        "resourceType": "Observation",
        "id": "5f42ea21-a933-4220-a80b-81afccae52f9",
        "status": "final",
        "category": [
          {
            "coding": [
              {
                "system": "http://terminology.hl7.org/CodeSystem/observation-category",
                "code": "laboratory",
                "display": "Laboratory"
              }
            ],
            "text": "Laboratory"
          }
        ],
        "code": {
          "coding": [
            {
              "system": "http://loinc.org",
              "code": "80109-2",
              "display": "Fet Preg risk fact prenat genetic test"
            }
          ],
          "text": "Genetic testing"
        },
        "subject": {
          "reference": "Patient/3036b139-c408-42ec-a83e-9505c0dee5e1"
        },
        "encounter": {
          "reference": "Encounter/3315889c-0960-4590-9a3d-3c4f112ee0a6"
        },
        "effectiveDateTime": "2025-10-17T10:23:22.525041Z",
        "interpretation": [
          {
            "coding": [
              {
                "system": "http://terminology.hl7.org/CodeSystem/v3-ObservationInterpretation",
                "code": "A",
                "display": "Abnormal"
              }
            ]
          }
        ],
        "note": [
          {
            "text": "Definition: https://loinc.org/80109-2/"
          }
        ]
      },
      "request": {
        "method": "POST",
        "url": "Observation"
      }
    },
    {
      "fullUrl": "urn:uuid:1010bc56-9d3c-48be-8629-09d1da9c94f8",
      "resource": {
        "resourceType": "Observation",
        "id": "1010bc56-9d3c-48be-8629-09d1da9c94f8",
        "status": "final",
        "category": [
          {
            "coding": [
              {
                "system": "http://terminology.hl7.org/CodeSystem/observation-category",
                "code": "exam",
                "display": "Exam"
              }
            ],
            "text": "Exam"
          }
        ],
        "code": {
          "coding": [
            {
              "system": "http://snomed.info/sct",
              "code": "402656007",
              "display": "Urticarial vasculitis"
            }
          ],
          "text": "Urticarial rash"
        },
        "subject": {
          "reference": "Patient/3036b139-c408-42ec-a83e-9505c0dee5e1"
        },
        "encounter": {
          "reference": "Encounter/3315889c-0960-4590-9a3d-3c4f112ee0a6"
        },
        "effectivePeriod": {
          "start": "2025-10-17T10:23:23.972361Z"
        },
        "valueBoolean": true,
        "interpretation": [
          {
            "coding": [
              {
                "system": "http://terminology.hl7.org/CodeSystem/v3-ObservationInterpretation",
                "code": "A",
                "display": "Abnormal"
              }
            ],
            "text": "Abnormal"
          }
        ],
        "note": [
          {
            "text": "Definition: https://snomed.info/id/402656007"
          }
        ]
      },
      "request": {
        "method": "POST",
        "url": "Observation"
      }
    },
    {
      "fullUrl": "urn:uuid:f9461a8c-dc56-4343-a7c8-1b1a5b216b17",
      "resource": {
        "resourceType": "Observation",
        "id": "f9461a8c-dc56-4343-a7c8-1b1a5b216b17",
        "status": "final",
        "category": [
          {
            "coding": [
              {
                "system": "http://terminology.hl7.org/CodeSystem/observation-category",
                "code": "exam",
                "display": "Exam"
              }
            ],
            "text": "Exam"
          }
        ],
        "code": {
          "coding": [
            {
              "system": "http://snomed.info/sct",
              "code": "277138006",
              "display": "Rubella arthralgia"
            }
          ],
          "text": "Arthralgia"
        },
        "subject": {
          "reference": "Patient/3036b139-c408-42ec-a83e-9505c0dee5e1"
        },
        "encounter": {
          "reference": "Encounter/3315889c-0960-4590-9a3d-3c4f112ee0a6"
        },
        "effectivePeriod": {
          "start": "2025-10-17T10:23:25.807537Z"
        },
        "valueBoolean": true,
        "interpretation": [
          {
            "coding": [
              {
                "system": "http://terminology.hl7.org/CodeSystem/v3-ObservationInterpretation",
                "code": "A",
                "display": "Abnormal"
              }
            ],
            "text": "Abnormal"
          }
        ],
        "note": [
          {
            "text": "Definition: https://snomed.info/id/277138006"
          }
        ]
      },
      "request": {
        "method": "POST",
        "url": "Observation"
      }
    },
    {
      "fullUrl": "urn:uuid:2173b2cf-f1ec-43b9-9487-20bd21e92615",
      "resource": {
        "resourceType": "Observation",
        "id": "2173b2cf-f1ec-43b9-9487-20bd21e92615",
        "status": "final",
        "category": [
          {
            "coding": [
              {
                "system": "http://terminology.hl7.org/CodeSystem/observation-category",
                "code": "exam",
                "display": "Exam"
              }
            ],
            "text": "Exam"
          }
        ],
        "code": {
          "coding": [
            {
              "system": "http://snomed.info/sct",
              "code": "369766003",
              "display": "Low grade (lymphoma)"
            }
          ],
          "text": "Low-grade fever"
        },
        "subject": {
          "reference": "Patient/3036b139-c408-42ec-a83e-9505c0dee5e1"
        },
        "encounter": {
          "reference": "Encounter/3315889c-0960-4590-9a3d-3c4f112ee0a6"
        },
        "effectivePeriod": {
          "start": "2025-10-17T10:23:27.433823Z"
        },
        "valueBoolean": true,
        "interpretation": [
          {
            "coding": [
              {
                "system": "http://terminology.hl7.org/CodeSystem/v3-ObservationInterpretation",
                "code": "A",
                "display": "Abnormal"
              }
            ],
            "text": "Abnormal"
          }
        ],
        "note": [
          {
            "text": "Definition: https://snomed.info/id/369766003"
          }
        ]
      },
      "request": {
        "method": "POST",
        "url": "Observation"
      }
    },
    {
      "fullUrl": "urn:uuid:5956aa2a-1dc7-4c80-9eb3-7d1abf6d385d",
      "resource": {
        "resourceType": "Observation",
        "id": "5956aa2a-1dc7-4c80-9eb3-7d1abf6d385d",
        "status": "final",
        "category": [
          {
            "coding": [
              {
                "system": "http://terminology.hl7.org/CodeSystem/observation-category",
                "code": "exam",
                "display": "Exam"
              }
            ],
            "text": "Exam"
          }
        ],
        "code": {
          "coding": [
            {
              "system": "http://snomed.info/sct",
              "code": "60700002",
              "display": "Sensorineural hearing loss"
            }
          ],
          "text": "Sensorineural hearing loss"
        },
        "subject": {
          "reference": "Patient/3036b139-c408-42ec-a83e-9505c0dee5e1"
        },
        "encounter": {
          "reference": "Encounter/3315889c-0960-4590-9a3d-3c4f112ee0a6"
        },
        "effectivePeriod": {
          "start": "2025-10-17T10:23:29.069696Z"
        },
        "valueBoolean": true,
        "interpretation": [
          {
            "coding": [
              {
                "system": "http://terminology.hl7.org/CodeSystem/v3-ObservationInterpretation",
                "code": "A",
                "display": "Abnormal"
              }
            ],
            "text": "Abnormal"
          }
        ],
        "note": [
          {
            "text": "Definition: https://snomed.info/id/60700002"
          }
        ]
      },
      "request": {
        "method": "POST",
        "url": "Observation"
      }
    },
    {
      "fullUrl": "urn:uuid:780424c5-c8d6-449a-866b-506f0ad9d935",
      "resource": {
        "resourceType": "List",
        "id": "780424c5-c8d6-449a-866b-506f0ad9d935",
        "contained": [
          {
            "resourceType": "FamilyMemberHistory",
            "id": "fmh-1",
            "status": "completed",
            "patient": {
              "reference": "Patient/3036b139-c408-42ec-a83e-9505c0dee5e1"
            },
            "relationship": {
              "coding": [
                {
                  "system": "http://snomed.info/sct",
                  "code": "72705000",
                  "display": "Mother"
                }
              ]
            },
            "deceasedBoolean": false,
            "condition": [
              {
                "code": {
                  "coding": [
                    {
                      "system": "http://snomed.info/sct",
                      "code": "255398004",
                      "display": "Childhood"
                    }
                  ]
                }
              }
            ]
          }
        ],
        "status": "current",
        "mode": "snapshot",
        "code": {
          "coding": [
            {
              "system": "http://loinc.org",
              "code": "8670-2",
              "display": "History of family member diseases"
            }
          ]
        },
        "subject": [
          {
            "reference": "Patient/3036b139-c408-42ec-a83e-9505c0dee5e1"
          }
        ],
        "note": [
          {
            "text": "No family members with autoimmune disease"
          }
        ],
        "entry": [
          {
            "item": {
              "reference": "#fmh-1"
            }
          }
        ]
      },
      "request": {
        "method": "POST",
        "url": "FamilyMemberHistory"
      }
    }
  ]
}