{
  "resourceType": "Bundle",
  "type": "transaction",
  "entry": [
    {
      "fullUrl": "urn:uuid:a2fdd138-75f2-474c-a3b8-d11003532354",
      "resource": {
        "resourceType": "Patient",
        "id": "a2fdd138-75f2-474c-a3b8-d11003532354",
        "name": [
          {
            "family": "Kro",
            "given": [
              "Lara"
            ]
          }
        ],
        "gender": "female",
        "address": [
          {}
        ]
      },
      "request": {
        "method": "POST",
        "url": "Patient"
      }
    },
    {
      "fullUrl": "urn:uuid:6121570b-949c-47a2-b6d7-6fbf35abc5dd",
      "resource": {
        "resourceType": "Encounter",
        "id": "6121570b-949c-47a2-b6d7-6fbf35abc5dd",
        "identifier": [
          {
            "use": "temp",
            "value": "Encounter_Lara Kro_20251017122311"
          }
        ],
        "status": "completed",
        "priority": {
          "coding": [
            {
              "system": "http://snomed.info/sct",
              "code": "17621005",
              "display": "Normal"
            }
          ]
        },
        "type": [
          {
            "coding": [
              {
                "system": "http://snomed.info/sct",
                "code": "11429006",
                "display": "Consultation"
              }
            ]
          }
        ],
        "subject": {
          "reference": "Patient/a2fdd138-75f2-474c-a3b8-d11003532354",
          "display": "Lara Kro"
        },
        "reason": [
          {
            "value": [
              {
                "concept": {
                  "text": "recurrent episodes of low-grade fever, urticarial rash, and joint pain"
                }
              }
            ]
          }
        ]
      },
      "request": {
        "method": "POST",
        "url": "Encounter"
      }
    },
    {
      "fullUrl": "urn:uuid:e0af2336-1692-4b97-a886-016f8aa02b28",
      "resource": {
        "resourceType": "Observation",
        "id": "e0af2336-1692-4b97-a886-016f8aa02b28",
        "status": "final",
        "category": [
          {
            "coding": [
              {
                "system": "http://terminology.hl7.org/CodeSystem/observation-category",
                "code": "laboratory",
                "display": "Laboratory"
              }
            ],
            "text": "Laboratory"
          }
        ],
        "code": {
          "coding": [
            {
              "system": "http://loinc.org",
              "code": "35648-5",
              "display": "CRP Quint SerPl Qn HS"
            }
          ],
          "text": "C-Reactive Protein (CRP)"
        },
        "subject": {
          "reference": "Patient/a2fdd138-75f2-474c-a3b8-d11003532354"
        },
        "encounter": {
          "reference": "Encounter/6121570b-949c-47a2-b6d7-6fbf35abc5dd"
        },
        "effectiveDateTime": "2025-10-17T10:23:11.555244Z",
        "interpretation": [
          {
            "coding": [
              {
                "system": "http://terminology.hl7.org/CodeSystem/v3-ObservationInterpretation",
                "code": "H",
                "display": "High"
              }
            ]
          }
        ],
        "note": [
          {
            "text": "Definition: https://loinc.org/35648-5/"
          }
        ]
      },
      "request": {
        "method": "POST",
        "url": "Observation"
      }
    },
    {
      "fullUrl": "urn:uuid:6786a82c-4c08-4d20-b293-ec4ffc0499fa",
      "resource": {
        "resourceType": "Observation",
        "id": "6786a82c-4c08-4d20-b293-ec4ffc0499fa",
        "status": "final",
        "category": [
          {
            "coding": [
              {
                "system": "http://terminology.hl7.org/CodeSystem/observation-category",
                "code": "laboratory",
                "display": "Laboratory"
              }
            ],
            "text": "Laboratory"
          }
        ],
        "code": {
          "coding": [
            {
              "system": "http://loinc.org",
              "code": "1847-3",
              "display": "AA Prot Ser-mCnc"
            }
          ],
          "text": "Serum Amyloid A (SAA)"
        },
        "subject": {
          "reference": "Patient/a2fdd138-75f2-474c-a3b8-d11003532354"
        },
        "encounter": {
          "reference": "Encounter/6121570b-949c-47a2-b6d7-6fbf35abc5dd"
        },
        "effectiveDateTime": "2025-10-17T10:23:11.760490Z",
        "interpretation": [
          {
            "coding": [
              {
                "system": "http://terminology.hl7.org/CodeSystem/v3-ObservationInterpretation",
                "code": "H",
                "display": "High"
              }
            ]
          }
        ],
        "note": [
          {
            "text": "Definition: https://loinc.org/1847-3/"
          }
        ]
      },
      "request": {
        "method": "POST",
        "url": "Observation"
      }
    },
    {
      "fullUrl": "urn:uuid:3648670a-317c-4eb5-8f84-a4a63a5d58ba",
      "resource": {
        "resourceType": "Observation",
        "id": "3648670a-317c-4eb5-8f84-a4a63a5d58ba",
        "status": "final",
        "category": [
          {
            "coding": [
              {
                "system": "http://terminology.hl7.org/CodeSystem/observation-category",
                "code": "exam",
                "display": "Exam"
              }
            ],
            "text": "Exam"
          }
        ],
        "code": {
          "coding": [
            {
              "system": "http://snomed.info/sct",
              "code": "369766003",
              "display": "Low grade (lymphoma)"
            }
          ],
          "text": "Low-grade fever"
        },
        "subject": {
          "reference": "Patient/a2fdd138-75f2-474c-a3b8-d11003532354"
        },
        "encounter": {
          "reference": "Encounter/6121570b-949c-47a2-b6d7-6fbf35abc5dd"
        },
        "effectivePeriod": {
          "start": "2025-10-17T10:23:13.719094Z"
        },
        "valueBoolean": true,
        "note": [
          {
            "text": "Definition: https://snomed.info/id/369766003"
          }
        ]
      },
      "request": {
        "method": "POST",
        "url": "Observation"
      }
    },
    {
      "fullUrl": "urn:uuid:55133fe0-38b3-4a8f-8b84-ba62cc5bffb6",
      "resource": {
        "resourceType": "Observation",
        "id": "55133fe0-38b3-4a8f-8b84-ba62cc5bffb6",
        "status": "final",
        "category": [
          {
            "coding": [
              {
                "system": "http://terminology.hl7.org/CodeSystem/observation-category",
                "code": "exam",
                "display": "Exam"
              }
            ],
            "text": "Exam"
          }
        ],
        "code": {
          "coding": [
            {
              "system": "http://snomed.info/sct",
              "code": "402656007",
              "display": "Urticarial vasculitis"
            }
          ],
          "text": "Urticarial rash"
        },
        "subject": {
          "reference": "Patient/a2fdd138-75f2-474c-a3b8-d11003532354"
        },
        "encounter": {
          "reference": "Encounter/6121570b-949c-47a2-b6d7-6fbf35abc5dd"
        },
        "effectivePeriod": {
          "start": "2025-10-17T10:23:15.554862Z"
        },
        "valueBoolean": true,
        "note": [
          {
            "text": "Definition: https://snomed.info/id/402656007"
          }
        ]
      },
      "request": {
        "method": "POST",
        "url": "Observation"
      }
    },
    {
      "fullUrl": "urn:uuid:678bb9dc-bbc8-49af-a5cd-49f81ba55639",
      "resource": {
        "resourceType": "Observation",
        "id": "678bb9dc-bbc8-49af-a5cd-49f81ba55639",
        "status": "final",
        "category": [
          {
            "coding": [
              {
                "system": "http://terminology.hl7.org/CodeSystem/observation-category",
                "code": "exam",
                "display": "Exam"
              }
            ],
            "text": "Exam"
          }
        ],
        "code": {
          "coding": [
            {
              "system": "http://snomed.info/sct",
              "code": "57676002",
              "display": "Joint pain"
            }
          ],
          "text": "Joint pain"
        },
        "subject": {
          "reference": "Patient/a2fdd138-75f2-474c-a3b8-d11003532354"
        },
        "encounter": {
          "reference": "Encounter/6121570b-949c-47a2-b6d7-6fbf35abc5dd"
        },
        "effectivePeriod": {
          "start": "2025-10-17T10:23:16.957412Z"
        },
        "valueBoolean": true,
        "note": [
          {
            "text": "Definition: https://snomed.info/id/57676002"
          }
        ]
      },
      "request": {
        "method": "POST",
        "url": "Observation"
      }
    },
    {
      "fullUrl": "urn:uuid:59409999-d921-4eda-966e-fe85b0f6c353",
      "resource": {
        "resourceType": "Observation",
        "id": "59409999-d921-4eda-966e-fe85b0f6c353",
        "status": "final",
        "category": [
          {
            "coding": [
              {
                "system": "http://terminology.hl7.org/CodeSystem/observation-category",
                "code": "exam",
                "display": "Exam"
              }
            ],
            "text": "Exam"
          }
        ],
        "code": {
          "coding": [
            {
              "system": "http://snomed.info/sct",
              "code": "162340000",
              "display": "Hearing difficulty"
            }
          ],
          "text": "Hearing difficulty"
        },
        "subject": {
          "reference": "Patient/a2fdd138-75f2-474c-a3b8-d11003532354"
        },
        "encounter": {
          "reference": "Encounter/6121570b-949c-47a2-b6d7-6fbf35abc5dd"
        },
        "effectivePeriod": {
          "start": "2025-10-17T10:23:18.527355Z"
        },
        "valueBoolean": true,
        "interpretation": [
          {
            "coding": [
              {
                "system": "http://terminology.hl7.org/CodeSystem/v3-ObservationInterpretation",
                "code": "A",
                "display": "Abnormal"
              }
            ],
            "text": "Abnormal"
          }
        ],
        "note": [
          {
            "text": "Definition: https://snomed.info/id/162340000"
          }
        ]
      },
      "request": {
        "method": "POST",
        "url": "Observation"
      }
    }
  ]
}