{
  "resourceType": "Bundle",
  "type": "transaction",
  "entry": [
    {
      "fullUrl": "urn:uuid:91b810ef-c29e-4e1d-a210-5557dcb186da",
      "resource": {
        "resourceType": "Patient",
        "id": "91b810ef-c29e-4e1d-a210-5557dcb186da",
        "name": [
          {
            "family": "Zaitsev",
            "given": [
              "Alexander"
            ]
          }
        ],
        "gender": "male",
        "address": [
          {}
        ]
      },
      "request": {
        "method": "POST",
        "url": "Patient"
      }
    },
    {
      "fullUrl": "urn:uuid:228ff54d-0776-479f-b052-cc5747dc2e9c",
      "resource": {
        "resourceType": "Encounter",
        "id": "228ff54d-0776-479f-b052-cc5747dc2e9c",
        "identifier": [
          {
            "use": "temp",
            "value": "Encounter_Alexander Zaitsev_20251017182905"
          }
        ],
        "status": "completed",
        "priority": {
          "coding": [
            {
              "system": "http://snomed.info/sct",
              "code": "17621005",
              "display": "Normal"
            }
          ]
        },
        "type": [
          {
            "coding": [
              {
                "system": "http://snomed.info/sct",
                "code": "11429006",
                "display": "Consultation"
              }
            ]
          }
        ],
        "subject": {
          "reference": "Patient/91b810ef-c29e-4e1d-a210-5557dcb186da",
          "display": "Alexander Zaitsev"
        },
        "reason": [
          {
            "value": [
              {
                "concept": {
                  "text": "recurrent episodes of fever, chills, and pain in his ankles and wrists"
                }
              }
            ]
          }
        ]
      },
      "request": {
        "method": "POST",
        "url": "Encounter"
      }
    },
    {
      "fullUrl": "urn:uuid:ff9a4e12-28cf-4832-b6d7-3b966cf819fb",
      "resource": {
        "resourceType": "Observation",
        "id": "ff9a4e12-28cf-4832-b6d7-3b966cf819fb",
        "status": "final",
        "category": [
          {
            "coding": [
              {
                "system": "http://terminology.hl7.org/CodeSystem/observation-category",
                "code": "laboratory",
                "display": "Laboratory"
              }
            ],
            "text": "Laboratory"
          }
        ],
        "code": {
          "coding": [
            {
              "system": "http://loinc.org",
              "code": "35648-5",
              "display": "CRP Quint SerPl Qn HS"
            }
          ],
          "text": "C-Reactive Protein (CRP)"
        },
        "subject": {
          "reference": "Patient/91b810ef-c29e-4e1d-a210-5557dcb186da"
        },
        "encounter": {
          "reference": "Encounter/228ff54d-0776-479f-b052-cc5747dc2e9c"
        },
        "effectiveDateTime": "2025-10-16",
        "interpretation": [
          {
            "coding": [
              {
                "system": "http://terminology.hl7.org/CodeSystem/v3-ObservationInterpretation",
                "code": "H",
                "display": "High"
              }
            ]
          }
        ],
        "note": [
          {
            "text": "Definition: https://loinc.org/35648-5/"
          }
        ]
      },
      "request": {
        "method": "POST",
        "url": "Observation"
      }
    },
    {
      "fullUrl": "urn:uuid:ff77840a-875d-40ff-8e68-55608cdb2e42",
      "resource": {
        "resourceType": "Observation",
        "id": "ff77840a-875d-40ff-8e68-55608cdb2e42",
        "status": "final",
        "category": [
          {
            "coding": [
              {
                "system": "http://terminology.hl7.org/CodeSystem/observation-category",
                "code": "laboratory",
                "display": "Laboratory"
              }
            ],
            "text": "Laboratory"
          }
        ],
        "code": {
          "coding": [
            {
              "system": "http://loinc.org",
              "code": "unknown",
              "display": "Erythrocyte Sedimentation Rate (ESR)"
            }
          ],
          "text": "Erythrocyte Sedimentation Rate (ESR)"
        },
        "subject": {
          "reference": "Patient/91b810ef-c29e-4e1d-a210-5557dcb186da"
        },
        "encounter": {
          "reference": "Encounter/228ff54d-0776-479f-b052-cc5747dc2e9c"
        },
        "effectiveDateTime": "2025-10-16",
        "interpretation": [
          {
            "coding": [
              {
                "system": "http://terminology.hl7.org/CodeSystem/v3-ObservationInterpretation",
                "code": "H",
                "display": "High"
              }
            ]
          }
        ]
      },
      "request": {
        "method": "POST",
        "url": "Observation"
      }
    },
    {
      "fullUrl": "urn:uuid:7aff0d2d-64c2-4f3c-8523-daf2d915b843",
      "resource": {
        "resourceType": "Observation",
        "id": "7aff0d2d-64c2-4f3c-8523-daf2d915b843",
        "status": "final",
        "category": [
          {
            "coding": [
              {
                "system": "http://terminology.hl7.org/CodeSystem/observation-category",
                "code": "exam",
                "display": "Exam"
              }
            ],
            "text": "Exam"
          }
        ],
        "code": {
          "coding": [
            {
              "system": "http://snomed.info/sct",
              "code": "386661006",
              "display": "Fever"
            }
          ],
          "text": "Fever"
        },
        "subject": {
          "reference": "Patient/91b810ef-c29e-4e1d-a210-5557dcb186da"
        },
        "encounter": {
          "reference": "Encounter/228ff54d-0776-479f-b052-cc5747dc2e9c"
        },
        "effectivePeriod": {
          "start": "2025-10-16"
        },
        "valueBoolean": true,
        "note": [
          {
            "text": "Definition: https://snomed.info/id/386661006"
          }
        ]
      },
      "request": {
        "method": "POST",
        "url": "Observation"
      }
    },
    {
      "fullUrl": "urn:uuid:a2b4f1f4-986b-4e3d-b09b-5188028580b3",
      "resource": {
        "resourceType": "Observation",
        "id": "a2b4f1f4-986b-4e3d-b09b-5188028580b3",
        "status": "final",
        "category": [
          {
            "coding": [
              {
                "system": "http://terminology.hl7.org/CodeSystem/observation-category",
                "code": "exam",
                "display": "Exam"
              }
            ],
            "text": "Exam"
          }
        ],
        "code": {
          "coding": [
            {
              "system": "http://snomed.info/sct",
              "code": "274640006",
              "display": "Fever with chills"
            }
          ],
          "text": "Chills"
        },
        "subject": {
          "reference": "Patient/91b810ef-c29e-4e1d-a210-5557dcb186da"
        },
        "encounter": {
          "reference": "Encounter/228ff54d-0776-479f-b052-cc5747dc2e9c"
        },
        "effectivePeriod": {
          "start": "2025-10-16"
        },
        "valueBoolean": true,
        "note": [
          {
            "text": "Definition: https://snomed.info/id/274640006"
          }
        ]
      },
      "request": {
        "method": "POST",
        "url": "Observation"
      }
    },
    {
      "fullUrl": "urn:uuid:8a26db69-1936-4391-b3a7-50c03214dd63",
      "resource": {
        "resourceType": "Observation",
        "id": "8a26db69-1936-4391-b3a7-50c03214dd63",
        "status": "final",
        "category": [
          {
            "coding": [
              {
                "system": "http://terminology.hl7.org/CodeSystem/observation-category",
                "code": "exam",
                "display": "Exam"
              }
            ],
            "text": "Exam"
          }
        ],
        "code": {
          "coding": [
            {
              "system": "http://snomed.info/sct",
              "code": "69948000",
              "display": "Both ankles"
            }
          ],
          "text": "Pain in ankles and wrists"
        },
        "subject": {
          "reference": "Patient/91b810ef-c29e-4e1d-a210-5557dcb186da"
        },
        "encounter": {
          "reference": "Encounter/228ff54d-0776-479f-b052-cc5747dc2e9c"
        },
        "effectivePeriod": {
          "start": "2025-10-16"
        },
        "valueBoolean": true,
        "note": [
          {
            "text": "Definition: https://snomed.info/id/69948000"
          }
        ]
      },
      "request": {
        "method": "POST",
        "url": "Observation"
      }
    },
    {
      "fullUrl": "urn:uuid:7e2cdd5a-97db-4a3b-8df4-272a24ca7ce0",
      "resource": {
        "resourceType": "Observation",
        "id": "7e2cdd5a-97db-4a3b-8df4-272a24ca7ce0",
        "status": "final",
        "category": [
          {
            "coding": [
              {
                "system": "http://terminology.hl7.org/CodeSystem/observation-category",
                "code": "exam",
                "display": "Exam"
              }
            ],
            "text": "Exam"
          }
        ],
        "code": {
          "coding": [
            {
              "system": "http://snomed.info/sct",
              "code": "249898006",
              "display": "Slow on legs"
            }
          ],
          "text": "Migratory rash on legs"
        },
        "subject": {
          "reference": "Patient/91b810ef-c29e-4e1d-a210-5557dcb186da"
        },
        "encounter": {
          "reference": "Encounter/228ff54d-0776-479f-b052-cc5747dc2e9c"
        },
        "effectivePeriod": {
          "start": "2025-10-16"
        },
        "valueBoolean": true,
        "note": [
          {
            "text": "Definition: https://snomed.info/id/249898006"
          }
        ]
      },
      "request": {
        "method": "POST",
        "url": "Observation"
      }
    },
    {
      "fullUrl": "urn:uuid:f633c201-3317-49f7-8492-7bbdd4c2309d",
      "resource": {
        "resourceType": "List",
        "id": "f633c201-3317-49f7-8492-7bbdd4c2309d",
        "contained": [
          {
            "resourceType": "FamilyMemberHistory",
            "id": "fmh-1",
            "status": "completed",
            "patient": {
              "reference": "Patient/91b810ef-c29e-4e1d-a210-5557dcb186da"
            },
            "relationship": {
              "coding": [
                {
                  "system": "http://snomed.info/sct",
                  "code": "736454006",
                  "display": "Maternal aunt"
                }
              ]
            },
            "deceasedBoolean": false,
            "condition": [
              {
                "code": {
                  "coding": [
                    {
                      "system": "http://snomed.info/sct",
                      "code": "439469002",
                      "display": "Recurrent abdominal pain"
                    }
                  ]
                }
              }
            ]
          }
        ],
        "status": "current",
        "mode": "snapshot",
        "code": {
          "coding": [
            {
              "system": "http://loinc.org",
              "code": "8670-2",
              "display": "History of family member diseases"
            }
          ]
        },
        "subject": [
          {
            "reference": "Patient/91b810ef-c29e-4e1d-a210-5557dcb186da"
          }
        ],
        "entry": [
          {
            "item": {
              "reference": "#fmh-1"
            }
          }
        ]
      },
      "request": {
        "method": "POST",
        "url": "FamilyMemberHistory"
      }
    }
  ]
}