{
  "resourceType": "Bundle",
  "type": "transaction",
  "entry": [
    {
      "fullUrl": "urn:uuid:16ad46f9-d60e-4f24-9dca-20d59d164827",
      "resource": {
        "resourceType": "Patient",
        "id": "16ad46f9-d60e-4f24-9dca-20d59d164827",
        "name": [
          {
            "family": "Ivanova",
            "given": [
              "Svetlana"
            ]
          }
        ],
        "gender": "female",
        "birthDate": "1993-01-01",
        "address": [
          {}
        ]
      },
      "request": {
        "method": "POST",
        "url": "Patient"
      }
    },
    {
      "fullUrl": "urn:uuid:7f3e0b77-e17e-4b3a-8113-fb08462db48b",
      "resource": {
        "resourceType": "Encounter",
        "id": "7f3e0b77-e17e-4b3a-8113-fb08462db48b",
        "identifier": [
          {
            "use": "temp",
            "value": "Encounter_Svetlana Ivanova_20251020131852"
          }
        ],
        "status": "completed",
        "priority": {
          "coding": [
            {
              "system": "http://snomed.info/sct",
              "code": "17621005",
              "display": "Normal"
            }
          ]
        },
        "type": [
          {
            "coding": [
              {
                "system": "http://snomed.info/sct",
                "code": "11429006",
                "display": "Consultation"
              }
            ]
          }
        ],
        "subject": {
          "reference": "Patient/16ad46f9-d60e-4f24-9dca-20d59d164827",
          "display": "Svetlana Ivanova"
        },
        "reason": [
          {
            "value": [
              {
                "concept": {
                  "text": "recurrent episodes of fever, arthralgia, and a maculopapular rash on her forearms"
                }
              }
            ]
          }
        ]
      },
      "request": {
        "method": "POST",
        "url": "Encounter"
      }
    },
    {
      "fullUrl": "urn:uuid:8bf50996-deaa-4913-a1ab-e22d16320f1c",
      "resource": {
        "resourceType": "Observation",
        "id": "8bf50996-deaa-4913-a1ab-e22d16320f1c",
        "status": "final",
        "category": [
          {
            "coding": [
              {
                "system": "http://terminology.hl7.org/CodeSystem/observation-category",
                "code": "laboratory",
                "display": "Laboratory"
              }
            ],
            "text": "Laboratory"
          }
        ],
        "code": {
          "coding": [
            {
              "system": "http://loinc.org",
              "code": "unknown",
              "display": "Erythrocyte Sedimentation Rate (ESR)"
            }
          ],
          "text": "Erythrocyte Sedimentation Rate (ESR)"
        },
        "subject": {
          "reference": "Patient/16ad46f9-d60e-4f24-9dca-20d59d164827"
        },
        "encounter": {
          "reference": "Encounter/7f3e0b77-e17e-4b3a-8113-fb08462db48b"
        },
        "effectiveDateTime": "2025-10-16",
        "interpretation": [
          {
            "coding": [
              {
                "system": "http://terminology.hl7.org/CodeSystem/v3-ObservationInterpretation",
                "code": "H",
                "display": "High"
              }
            ]
          }
        ]
      },
      "request": {
        "method": "POST",
        "url": "Observation"
      }
    },
    {
      "fullUrl": "urn:uuid:c022373a-691e-49bb-8c02-eca3edabcc09",
      "resource": {
        "resourceType": "Observation",
        "id": "c022373a-691e-49bb-8c02-eca3edabcc09",
        "status": "final",
        "category": [
          {
            "coding": [
              {
                "system": "http://terminology.hl7.org/CodeSystem/observation-category",
                "code": "laboratory",
                "display": "Laboratory"
              }
            ],
            "text": "Laboratory"
          }
        ],
        "code": {
          "coding": [
            {
              "system": "http://loinc.org",
              "code": "35648-5",
              "display": "CRP Quint SerPl Qn HS"
            }
          ],
          "text": "C-Reactive Protein (CRP)"
        },
        "subject": {
          "reference": "Patient/16ad46f9-d60e-4f24-9dca-20d59d164827"
        },
        "encounter": {
          "reference": "Encounter/7f3e0b77-e17e-4b3a-8113-fb08462db48b"
        },
        "effectiveDateTime": "2025-10-16",
        "interpretation": [
          {
            "coding": [
              {
                "system": "http://terminology.hl7.org/CodeSystem/v3-ObservationInterpretation",
                "code": "H",
                "display": "High"
              }
            ]
          }
        ],
        "note": [
          {
            "text": "Definition: https://loinc.org/35648-5/"
          }
        ]
      },
      "request": {
        "method": "POST",
        "url": "Observation"
      }
    },
    {
      "fullUrl": "urn:uuid:1875e471-45db-4abc-b0c3-b6aef476947b",
      "resource": {
        "resourceType": "Observation",
        "id": "1875e471-45db-4abc-b0c3-b6aef476947b",
        "status": "final",
        "category": [
          {
            "coding": [
              {
                "system": "http://terminology.hl7.org/CodeSystem/observation-category",
                "code": "exam",
                "display": "Exam"
              }
            ],
            "text": "Exam"
          }
        ],
        "code": {
          "coding": [
            {
              "system": "http://snomed.info/sct",
              "code": "386661006",
              "display": "Fever"
            }
          ],
          "text": "Fever"
        },
        "subject": {
          "reference": "Patient/16ad46f9-d60e-4f24-9dca-20d59d164827"
        },
        "encounter": {
          "reference": "Encounter/7f3e0b77-e17e-4b3a-8113-fb08462db48b"
        },
        "effectivePeriod": {
          "start": "2025-10-16"
        },
        "valueBoolean": true,
        "note": [
          {
            "text": "Definition: https://snomed.info/id/386661006"
          }
        ]
      },
      "request": {
        "method": "POST",
        "url": "Observation"
      }
    },
    {
      "fullUrl": "urn:uuid:7c9b54c1-f4f2-46fc-903b-a32c4142ce32",
      "resource": {
        "resourceType": "Observation",
        "id": "7c9b54c1-f4f2-46fc-903b-a32c4142ce32",
        "status": "final",
        "category": [
          {
            "coding": [
              {
                "system": "http://terminology.hl7.org/CodeSystem/observation-category",
                "code": "exam",
                "display": "Exam"
              }
            ],
            "text": "Exam"
          }
        ],
        "code": {
          "coding": [
            {
              "system": "http://snomed.info/sct",
              "code": "277138006",
              "display": "Rubella arthralgia"
            }
          ],
          "text": "Arthralgia"
        },
        "subject": {
          "reference": "Patient/16ad46f9-d60e-4f24-9dca-20d59d164827"
        },
        "encounter": {
          "reference": "Encounter/7f3e0b77-e17e-4b3a-8113-fb08462db48b"
        },
        "effectivePeriod": {
          "start": "2025-10-16"
        },
        "valueBoolean": true,
        "note": [
          {
            "text": "Definition: https://snomed.info/id/277138006"
          }
        ]
      },
      "request": {
        "method": "POST",
        "url": "Observation"
      }
    },
    {
      "fullUrl": "urn:uuid:0de70191-930c-4a60-a9cd-eac1172b3ad4",
      "resource": {
        "resourceType": "Observation",
        "id": "0de70191-930c-4a60-a9cd-eac1172b3ad4",
        "status": "final",
        "category": [
          {
            "coding": [
              {
                "system": "http://terminology.hl7.org/CodeSystem/observation-category",
                "code": "exam",
                "display": "Exam"
              }
            ],
            "text": "Exam"
          }
        ],
        "code": {
          "coding": [
            {
              "system": "http://snomed.info/sct",
              "code": "47725002",
              "display": "Maculopapular rash"
            }
          ],
          "text": "Maculopapular rash"
        },
        "subject": {
          "reference": "Patient/16ad46f9-d60e-4f24-9dca-20d59d164827"
        },
        "encounter": {
          "reference": "Encounter/7f3e0b77-e17e-4b3a-8113-fb08462db48b"
        },
        "effectivePeriod": {
          "start": "2025-10-16"
        },
        "valueBoolean": true,
        "note": [
          {
            "text": "Definition: https://snomed.info/id/47725002"
          }
        ]
      },
      "request": {
        "method": "POST",
        "url": "Observation"
      }
    },
    {
      "fullUrl": "urn:uuid:c5852035-0f86-4083-b954-1633e61ba16d",
      "resource": {
        "resourceType": "Observation",
        "id": "c5852035-0f86-4083-b954-1633e61ba16d",
        "status": "final",
        "category": [
          {
            "coding": [
              {
                "system": "http://terminology.hl7.org/CodeSystem/observation-category",
                "code": "exam",
                "display": "Exam"
              }
            ],
            "text": "Exam"
          }
        ],
        "code": {
          "coding": [
            {
              "system": "http://snomed.info/sct",
              "code": "126662008",
              "display": "Redness of throat"
            }
          ],
          "text": "Eye redness"
        },
        "subject": {
          "reference": "Patient/16ad46f9-d60e-4f24-9dca-20d59d164827"
        },
        "encounter": {
          "reference": "Encounter/7f3e0b77-e17e-4b3a-8113-fb08462db48b"
        },
        "effectivePeriod": {
          "start": "2025-10-16"
        },
        "valueBoolean": true,
        "note": [
          {
            "text": "Definition: https://snomed.info/id/126662008"
          }
        ]
      },
      "request": {
        "method": "POST",
        "url": "Observation"
      }
    },
    {
      "fullUrl": "urn:uuid:5c93763c-a180-454d-b070-3e3e1720cbd7",
      "resource": {
        "resourceType": "Observation",
        "id": "5c93763c-a180-454d-b070-3e3e1720cbd7",
        "status": "final",
        "category": [
          {
            "coding": [
              {
                "system": "http://terminology.hl7.org/CodeSystem/observation-category",
                "code": "exam",
                "display": "Exam"
              }
            ],
            "text": "Exam"
          }
        ],
        "code": {
          "coding": [
            {
              "system": "http://snomed.info/sct",
              "code": "84445001",
              "display": "Joint stiffness"
            }
          ],
          "text": "Joint stiffness"
        },
        "subject": {
          "reference": "Patient/16ad46f9-d60e-4f24-9dca-20d59d164827"
        },
        "encounter": {
          "reference": "Encounter/7f3e0b77-e17e-4b3a-8113-fb08462db48b"
        },
        "effectivePeriod": {
          "start": "2025-10-16"
        },
        "valueBoolean": true,
        "note": [
          {
            "text": "Definition: https://snomed.info/id/84445001"
          }
        ]
      },
      "request": {
        "method": "POST",
        "url": "Observation"
      }
    },
    {
      "fullUrl": "urn:uuid:3a593e20-f815-4641-a6ef-7e8a3b388ec1",
      "resource": {
        "resourceType": "Observation",
        "id": "3a593e20-f815-4641-a6ef-7e8a3b388ec1",
        "status": "final",
        "category": [
          {
            "coding": [
              {
                "system": "http://terminology.hl7.org/CodeSystem/observation-category",
                "code": "vital-signs",
                "display": "Vital Signs"
              }
            ],
            "text": "Vital Signs"
          }
        ],
        "code": {
          "coding": [
            {
              "system": "http://loinc.org",
              "code": "8310-5",
              "display": "Body temperature"
            }
          ],
          "text": "Body temperature"
        },
        "subject": {
          "reference": "Patient/16ad46f9-d60e-4f24-9dca-20d59d164827"
        },
        "encounter": {
          "reference": "Encounter/7f3e0b77-e17e-4b3a-8113-fb08462db48b"
        },
        "effectiveDateTime": "2025-10-16",
        "valueQuantity": {
          "value": 38.5,
          "unit": "°C",
          "system": "http://unitsofmeasure.org",
          "code": "°C"
        },
        "interpretation": [
          {
            "coding": [
              {
                "system": "http://terminology.hl7.org/CodeSystem/v3-ObservationInterpretation",
                "code": "H",
                "display": "High"
              }
            ],
            "text": "High"
          }
        ]
      },
      "request": {
        "method": "POST",
        "url": "Observation"
      }
    },
    {
      "fullUrl": "urn:uuid:4d0ce3e3-7ac5-4251-aea1-af5ff8b26819",
      "resource": {
        "resourceType": "List",
        "id": "4d0ce3e3-7ac5-4251-aea1-af5ff8b26819",
        "contained": [
          {
            "resourceType": "FamilyMemberHistory",
            "id": "fmh-1",
            "status": "completed",
            "patient": {
              "reference": "Patient/16ad46f9-d60e-4f24-9dca-20d59d164827"
            },
            "relationship": {
              "coding": [
                {
                  "system": "http://snomed.info/sct",
                  "code": "719759007",
                  "display": "Maternal cousin"
                }
              ]
            },
            "deceasedBoolean": false,
            "condition": [
              {
                "code": {
                  "coding": [
                    {
                      "system": "http://snomed.info/sct",
                      "code": "42111000175103",
                      "display": "Autoinflammatory disease"
                    }
                  ]
                }
              }
            ]
          }
        ],
        "status": "current",
        "mode": "snapshot",
        "code": {
          "coding": [
            {
              "system": "http://loinc.org",
              "code": "8670-2",
              "display": "History of family member diseases"
            }
          ]
        },
        "subject": [
          {
            "reference": "Patient/16ad46f9-d60e-4f24-9dca-20d59d164827"
          }
        ],
        "entry": [
          {
            "item": {
              "reference": "#fmh-1"
            }
          }
        ]
      },
      "request": {
        "method": "POST",
        "url": "FamilyMemberHistory"
      }
    }
  ]
}