{
  "resourceType": "Bundle",
  "type": "transaction",
  "entry": [
    {
      "fullUrl": "urn:uuid:4cdfb093-1db3-492d-b2be-1e0cd8767d3c",
      "resource": {
        "resourceType": "Patient",
        "id": "4cdfb093-1db3-492d-b2be-1e0cd8767d3c",
        "name": [
          {
            "family": "Denisova",
            "given": [
              "Viktoria"
            ]
          }
        ],
        "gender": "female",
        "birthDate": "2013-01-01",
        "address": [
          {}
        ]
      },
      "request": {
        "method": "POST",
        "url": "Patient"
      }
    },
    {
      "fullUrl": "urn:uuid:f7bb256c-a92a-4388-95f1-bf66f1df16c6",
      "resource": {
        "resourceType": "Encounter",
        "id": "f7bb256c-a92a-4388-95f1-bf66f1df16c6",
        "identifier": [
          {
            "use": "temp",
            "value": "Encounter_Viktoria Denisova_20251023103518"
          }
        ],
        "status": "completed",
        "priority": {
          "coding": [
            {
              "system": "http://snomed.info/sct",
              "code": "17621005",
              "display": "Normal"
            }
          ]
        },
        "type": [
          {
            "coding": [
              {
                "system": "http://snomed.info/sct",
                "code": "11429006",
                "display": "Consultation"
              }
            ]
          }
        ],
        "subject": {
          "reference": "Patient/4cdfb093-1db3-492d-b2be-1e0cd8767d3c",
          "display": "Viktoria Denisova"
        },
        "reason": [
          {
            "value": [
              {
                "concept": {
                  "text": "fever, malaise, and mild jaundice"
                }
              }
            ]
          }
        ]
      },
      "request": {
        "method": "POST",
        "url": "Encounter"
      }
    },
    {
      "fullUrl": "urn:uuid:bc557abf-163a-453f-ab8d-0d6e6a4b0251",
      "resource": {
        "resourceType": "Observation",
        "id": "bc557abf-163a-453f-ab8d-0d6e6a4b0251",
        "status": "final",
        "category": [
          {
            "coding": [
              {
                "system": "http://terminology.hl7.org/CodeSystem/observation-category",
                "code": "laboratory",
                "display": "Laboratory"
              }
            ],
            "text": "Laboratory"
          }
        ],
        "code": {
          "coding": [
            {
              "system": "http://loinc.org",
              "code": "62854-5",
              "display": "PhenX - glycosylated hemoglobin assay reflecting long-term glucose concentration protocol 140901"
            }
          ],
          "text": "Hemoglobin"
        },
        "subject": {
          "reference": "Patient/4cdfb093-1db3-492d-b2be-1e0cd8767d3c"
        },
        "encounter": {
          "reference": "Encounter/f7bb256c-a92a-4388-95f1-bf66f1df16c6"
        },
        "effectiveDateTime": "2025-10-16",
        "valueQuantity": {
          "value": 9.8,
          "unit": "g/dL",
          "system": "http://unitsofmeasure.org",
          "code": "g/dL"
        },
        "interpretation": [
          {
            "coding": [
              {
                "system": "http://terminology.hl7.org/CodeSystem/v3-ObservationInterpretation",
                "code": "L",
                "display": "Low"
              }
            ]
          }
        ],
        "note": [
          {
            "text": "Definition: https://loinc.org/62854-5/"
          }
        ]
      },
      "request": {
        "method": "POST",
        "url": "Observation"
      }
    },
    {
      "fullUrl": "urn:uuid:9f1eacee-0796-498f-89da-10ad536300d5",
      "resource": {
        "resourceType": "Observation",
        "id": "9f1eacee-0796-498f-89da-10ad536300d5",
        "status": "final",
        "category": [
          {
            "coding": [
              {
                "system": "http://terminology.hl7.org/CodeSystem/observation-category",
                "code": "laboratory",
                "display": "Laboratory"
              }
            ],
            "text": "Laboratory"
          }
        ],
        "code": {
          "coding": [
            {
              "system": "http://loinc.org",
              "code": "74775-8",
              "display": "Platelet # PRP Auto"
            }
          ],
          "text": "Platelet Count"
        },
        "subject": {
          "reference": "Patient/4cdfb093-1db3-492d-b2be-1e0cd8767d3c"
        },
        "encounter": {
          "reference": "Encounter/f7bb256c-a92a-4388-95f1-bf66f1df16c6"
        },
        "effectiveDateTime": "2025-10-16",
        "valueQuantity": {
          "value": 90.0,
          "unit": "×10⁹/L",
          "system": "http://unitsofmeasure.org",
          "code": "×10⁹/L"
        },
        "interpretation": [
          {
            "coding": [
              {
                "system": "http://terminology.hl7.org/CodeSystem/v3-ObservationInterpretation",
                "code": "L",
                "display": "Low"
              }
            ]
          }
        ],
        "note": [
          {
            "text": "Definition: https://loinc.org/74775-8/"
          }
        ]
      },
      "request": {
        "method": "POST",
        "url": "Observation"
      }
    },
    {
      "fullUrl": "urn:uuid:6c47aa79-f7d2-44ea-9c31-88bce6d3ea1f",
      "resource": {
        "resourceType": "Observation",
        "id": "6c47aa79-f7d2-44ea-9c31-88bce6d3ea1f",
        "status": "final",
        "category": [
          {
            "coding": [
              {
                "system": "http://terminology.hl7.org/CodeSystem/observation-category",
                "code": "laboratory",
                "display": "Laboratory"
              }
            ],
            "text": "Laboratory"
          }
        ],
        "code": {
          "coding": [
            {
              "system": "http://loinc.org",
              "code": "53048-5",
              "display": "Ferritin Fld-mCnc"
            }
          ],
          "text": "Ferritin"
        },
        "subject": {
          "reference": "Patient/4cdfb093-1db3-492d-b2be-1e0cd8767d3c"
        },
        "encounter": {
          "reference": "Encounter/f7bb256c-a92a-4388-95f1-bf66f1df16c6"
        },
        "effectiveDateTime": "2025-10-16",
        "valueQuantity": {
          "value": 1200.0,
          "unit": "µg/L",
          "system": "http://unitsofmeasure.org",
          "code": "µg/L"
        },
        "interpretation": [
          {
            "coding": [
              {
                "system": "http://terminology.hl7.org/CodeSystem/v3-ObservationInterpretation",
                "code": "H",
                "display": "High"
              }
            ]
          }
        ],
        "note": [
          {
            "text": "Definition: https://loinc.org/53048-5/"
          }
        ]
      },
      "request": {
        "method": "POST",
        "url": "Observation"
      }
    },
    {
      "fullUrl": "urn:uuid:2f0a8944-a2c7-4cdc-80c9-75ac1966fec2",
      "resource": {
        "resourceType": "Observation",
        "id": "2f0a8944-a2c7-4cdc-80c9-75ac1966fec2",
        "status": "final",
        "category": [
          {
            "coding": [
              {
                "system": "http://terminology.hl7.org/CodeSystem/observation-category",
                "code": "laboratory",
                "display": "Laboratory"
              }
            ],
            "text": "Laboratory"
          }
        ],
        "code": {
          "coding": [
            {
              "system": "http://loinc.org",
              "code": "105518-5",
              "display": "Triglycerides from lipid profile"
            }
          ],
          "text": "Triglycerides"
        },
        "subject": {
          "reference": "Patient/4cdfb093-1db3-492d-b2be-1e0cd8767d3c"
        },
        "encounter": {
          "reference": "Encounter/f7bb256c-a92a-4388-95f1-bf66f1df16c6"
        },
        "effectiveDateTime": "2025-10-16",
        "valueQuantity": {
          "value": 3.5,
          "unit": "mmol/L",
          "system": "http://unitsofmeasure.org",
          "code": "mmol/L"
        },
        "note": [
          {
            "text": "Definition: https://loinc.org/105518-5/"
          }
        ]
      },
      "request": {
        "method": "POST",
        "url": "Observation"
      }
    },
    {
      "fullUrl": "urn:uuid:788ffb15-e28e-4cb0-a95a-b1eac213c41f",
      "resource": {
        "resourceType": "Observation",
        "id": "788ffb15-e28e-4cb0-a95a-b1eac213c41f",
        "status": "final",
        "category": [
          {
            "coding": [
              {
                "system": "http://terminology.hl7.org/CodeSystem/observation-category",
                "code": "exam",
                "display": "Exam"
              }
            ],
            "text": "Exam"
          }
        ],
        "code": {
          "coding": [
            {
              "system": "http://snomed.info/sct",
              "code": "386661006",
              "display": "Fever"
            }
          ],
          "text": "Fever"
        },
        "subject": {
          "reference": "Patient/4cdfb093-1db3-492d-b2be-1e0cd8767d3c"
        },
        "encounter": {
          "reference": "Encounter/f7bb256c-a92a-4388-95f1-bf66f1df16c6"
        },
        "effectivePeriod": {
          "start": "2025-10-16"
        },
        "valueBoolean": true,
        "note": [
          {
            "text": "Definition: https://snomed.info/id/386661006"
          }
        ]
      },
      "request": {
        "method": "POST",
        "url": "Observation"
      }
    },
    {
      "fullUrl": "urn:uuid:8f85d57b-78c3-4567-8550-1bc15dd062d9",
      "resource": {
        "resourceType": "Observation",
        "id": "8f85d57b-78c3-4567-8550-1bc15dd062d9",
        "status": "final",
        "category": [
          {
            "coding": [
              {
                "system": "http://terminology.hl7.org/CodeSystem/observation-category",
                "code": "exam",
                "display": "Exam"
              }
            ],
            "text": "Exam"
          }
        ],
        "code": {
          "coding": [
            {
              "system": "http://snomed.info/sct",
              "code": "367391008",
              "display": "Malaise"
            }
          ],
          "text": "Malaise"
        },
        "subject": {
          "reference": "Patient/4cdfb093-1db3-492d-b2be-1e0cd8767d3c"
        },
        "encounter": {
          "reference": "Encounter/f7bb256c-a92a-4388-95f1-bf66f1df16c6"
        },
        "effectivePeriod": {
          "start": "2025-10-16"
        },
        "valueBoolean": true,
        "note": [
          {
            "text": "Definition: https://snomed.info/id/367391008"
          }
        ]
      },
      "request": {
        "method": "POST",
        "url": "Observation"
      }
    },
    {
      "fullUrl": "urn:uuid:7560d341-c242-4851-8b77-250348244ec1",
      "resource": {
        "resourceType": "Observation",
        "id": "7560d341-c242-4851-8b77-250348244ec1",
        "status": "final",
        "category": [
          {
            "coding": [
              {
                "system": "http://terminology.hl7.org/CodeSystem/observation-category",
                "code": "exam",
                "display": "Exam"
              }
            ],
            "text": "Exam"
          }
        ],
        "code": {
          "coding": [
            {
              "system": "http://snomed.info/sct",
              "code": "18165001",
              "display": "Jaundice"
            }
          ],
          "text": "Mild Jaundice"
        },
        "subject": {
          "reference": "Patient/4cdfb093-1db3-492d-b2be-1e0cd8767d3c"
        },
        "encounter": {
          "reference": "Encounter/f7bb256c-a92a-4388-95f1-bf66f1df16c6"
        },
        "effectivePeriod": {
          "start": "2025-10-16"
        },
        "valueBoolean": true,
        "note": [
          {
            "text": "Definition: https://snomed.info/id/18165001"
          }
        ]
      },
      "request": {
        "method": "POST",
        "url": "Observation"
      }
    },
    {
      "fullUrl": "urn:uuid:f7b7bb2f-3673-40ec-acfc-bbdce4d3fdc5",
      "resource": {
        "resourceType": "Observation",
        "id": "f7b7bb2f-3673-40ec-acfc-bbdce4d3fdc5",
        "status": "final",
        "category": [
          {
            "coding": [
              {
                "system": "http://terminology.hl7.org/CodeSystem/observation-category",
                "code": "exam",
                "display": "Exam"
              }
            ],
            "text": "Exam"
          }
        ],
        "code": {
          "coding": [
            {
              "system": "http://snomed.info/sct",
              "code": "84229001",
              "display": "Fatigue"
            }
          ],
          "text": "Fatigue"
        },
        "subject": {
          "reference": "Patient/4cdfb093-1db3-492d-b2be-1e0cd8767d3c"
        },
        "encounter": {
          "reference": "Encounter/f7bb256c-a92a-4388-95f1-bf66f1df16c6"
        },
        "effectivePeriod": {
          "start": "2025-10-16"
        },
        "valueBoolean": true,
        "note": [
          {
            "text": "Definition: https://snomed.info/id/84229001"
          }
        ]
      },
      "request": {
        "method": "POST",
        "url": "Observation"
      }
    },
    {
      "fullUrl": "urn:uuid:c5169ef3-b8aa-429c-a59d-f23ba201311c",
      "resource": {
        "resourceType": "Observation",
        "id": "c5169ef3-b8aa-429c-a59d-f23ba201311c",
        "status": "final",
        "category": [
          {
            "coding": [
              {
                "system": "http://terminology.hl7.org/CodeSystem/observation-category",
                "code": "exam",
                "display": "Exam"
              }
            ],
            "text": "Exam"
          }
        ],
        "code": {
          "coding": [
            {
              "system": "http://snomed.info/sct",
              "code": "36760000",
              "display": "Hepatosplenomegaly"
            }
          ],
          "text": "Hepatosplenomegaly"
        },
        "subject": {
          "reference": "Patient/4cdfb093-1db3-492d-b2be-1e0cd8767d3c"
        },
        "encounter": {
          "reference": "Encounter/f7bb256c-a92a-4388-95f1-bf66f1df16c6"
        },
        "effectivePeriod": {
          "start": "2025-10-16"
        },
        "valueBoolean": true,
        "note": [
          {
            "text": "Definition: https://snomed.info/id/36760000"
          }
        ]
      },
      "request": {
        "method": "POST",
        "url": "Observation"
      }
    },
    {
      "fullUrl": "urn:uuid:93eb8f76-3c1c-402f-a186-87f56d8aaa47",
      "resource": {
        "resourceType": "Observation",
        "id": "93eb8f76-3c1c-402f-a186-87f56d8aaa47",
        "status": "final",
        "category": [
          {
            "coding": [
              {
                "system": "http://terminology.hl7.org/CodeSystem/observation-category",
                "code": "vital-signs",
                "display": "Vital Signs"
              }
            ],
            "text": "Vital Signs"
          }
        ],
        "code": {
          "coding": [
            {
              "system": "http://loinc.org",
              "code": "8310-5",
              "display": "Body temperature"
            }
          ],
          "text": "temperature"
        },
        "subject": {
          "reference": "Patient/4cdfb093-1db3-492d-b2be-1e0cd8767d3c"
        },
        "encounter": {
          "reference": "Encounter/f7bb256c-a92a-4388-95f1-bf66f1df16c6"
        },
        "effectiveDateTime": "2025-10-16",
        "valueQuantity": {
          "value": 38.8,
          "unit": "°C",
          "system": "http://unitsofmeasure.org",
          "code": "°C"
        },
        "interpretation": [
          {
            "coding": [
              {
                "system": "http://terminology.hl7.org/CodeSystem/v3-ObservationInterpretation",
                "code": "H",
                "display": "High"
              }
            ],
            "text": "High"
          }
        ]
      },
      "request": {
        "method": "POST",
        "url": "Observation"
      }
    },
    {
      "fullUrl": "urn:uuid:abdeb594-6bb5-4f06-b292-575756b22ffe",
      "resource": {
        "resourceType": "Observation",
        "id": "abdeb594-6bb5-4f06-b292-575756b22ffe",
        "status": "final",
        "category": [
          {
            "coding": [
              {
                "system": "http://terminology.hl7.org/CodeSystem/observation-category",
                "code": "vital-signs",
                "display": "Vital Signs"
              }
            ],
            "text": "Vital Signs"
          }
        ],
        "code": {
          "coding": [
            {
              "system": "http://loinc.org",
              "code": "62733-1",
              "display": "PhenX - respiratory - pulse oximetry - rest protocol 091101"
            }
          ],
          "text": "pulse"
        },
        "subject": {
          "reference": "Patient/4cdfb093-1db3-492d-b2be-1e0cd8767d3c"
        },
        "encounter": {
          "reference": "Encounter/f7bb256c-a92a-4388-95f1-bf66f1df16c6"
        },
        "effectiveDateTime": "2025-10-16",
        "valueQuantity": {
          "value": 102.0,
          "unit": "bpm",
          "system": "http://unitsofmeasure.org",
          "code": "bpm"
        },
        "interpretation": [
          {
            "coding": [
              {
                "system": "http://terminology.hl7.org/CodeSystem/v3-ObservationInterpretation",
                "code": "H",
                "display": "High"
              }
            ],
            "text": "High"
          }
        ]
      },
      "request": {
        "method": "POST",
        "url": "Observation"
      }
    },
    {
      "fullUrl": "urn:uuid:489b9486-9181-4f69-a6a6-5b10e7fde677",
      "resource": {
        "resourceType": "Observation",
        "id": "489b9486-9181-4f69-a6a6-5b10e7fde677",
        "status": "final",
        "category": [
          {
            "coding": [
              {
                "system": "http://terminology.hl7.org/CodeSystem/observation-category",
                "code": "vital-signs",
                "display": "Vital Signs"
              }
            ],
            "text": "Vital Signs"
          }
        ],
        "code": {
          "coding": [
            {
              "system": "http://loinc.org",
              "code": "18684-1",
              "display": "Blood pressure"
            }
          ],
          "text": "blood pressure"
        },
        "subject": {
          "reference": "Patient/4cdfb093-1db3-492d-b2be-1e0cd8767d3c"
        },
        "encounter": {
          "reference": "Encounter/f7bb256c-a92a-4388-95f1-bf66f1df16c6"
        },
        "effectiveDateTime": "2025-10-16"
      },
      "request": {
        "method": "POST",
        "url": "Observation"
      }
    },
    {
      "fullUrl": "urn:uuid:c145386f-7d7a-4b04-aa75-f2cd6d63ad1f",
      "resource": {
        "resourceType": "List",
        "id": "c145386f-7d7a-4b04-aa75-f2cd6d63ad1f",
        "contained": [
          {
            "resourceType": "FamilyMemberHistory",
            "id": "fmh-2",
            "status": "completed",
            "patient": {
              "reference": "Patient/4cdfb093-1db3-492d-b2be-1e0cd8767d3c"
            },
            "relationship": {
              "coding": [
                {
                  "system": "http://snomed.info/sct",
                  "code": "66839005",
                  "display": "Father"
                }
              ]
            },
            "deceasedBoolean": false,
            "condition": []
          }
        ],
        "status": "current",
        "mode": "snapshot",
        "code": {
          "coding": [
            {
              "system": "http://loinc.org",
              "code": "8670-2",
              "display": "History of family member diseases"
            }
          ]
        },
        "subject": [
          {
            "reference": "Patient/4cdfb093-1db3-492d-b2be-1e0cd8767d3c"
          }
        ],
        "note": [
          {
            "text": "Both parents are healthy."
          }
        ],
        "entry": [
          {
            "item": {
              "reference": "#fmh-2"
            }
          }
        ]
      },
      "request": {
        "method": "POST",
        "url": "FamilyMemberHistory"
      }
    }
  ]
}