{
  "resourceType": "Bundle",
  "type": "transaction",
  "entry": [
    {
      "fullUrl": "urn:uuid:d8ae839e-8717-4d84-a244-b93fcf87abee",
      "resource": {
        "resourceType": "Patient",
        "id": "d8ae839e-8717-4d84-a244-b93fcf87abee",
        "name": [
          {
            "family": "P.",
            "given": [
              "Daniel"
            ]
          }
        ],
        "gender": "male",
        "address": [
          {}
        ]
      },
      "request": {
        "method": "POST",
        "url": "Patient"
      }
    },
    {
      "fullUrl": "urn:uuid:5533e35f-12d1-4be4-b806-82914a71fe65",
      "resource": {
        "resourceType": "Encounter",
        "id": "5533e35f-12d1-4be4-b806-82914a71fe65",
        "identifier": [
          {
            "use": "temp",
            "value": "Encounter_Daniel P._20251017122204"
          }
        ],
        "status": "completed",
        "priority": {
          "coding": [
            {
              "system": "http://snomed.info/sct",
              "code": "17621005",
              "display": "Normal"
            }
          ]
        },
        "type": [
          {
            "coding": [
              {
                "system": "http://snomed.info/sct",
                "code": "11429006",
                "display": "Consultation"
              }
            ]
          }
        ],
        "subject": {
          "reference": "Patient/d8ae839e-8717-4d84-a244-b93fcf87abee",
          "display": "Daniel P."
        },
        "reason": [
          {
            "value": [
              {
                "concept": {
                  "text": "episodic burning pain in hands and feet"
                }
              }
            ]
          }
        ]
      },
      "request": {
        "method": "POST",
        "url": "Encounter"
      }
    },
    {
      "fullUrl": "urn:uuid:340f2cc9-24fc-4360-8bfa-c7a9f092a0f4",
      "resource": {
        "resourceType": "Observation",
        "id": "340f2cc9-24fc-4360-8bfa-c7a9f092a0f4",
        "status": "final",
        "category": [
          {
            "coding": [
              {
                "system": "http://terminology.hl7.org/CodeSystem/observation-category",
                "code": "laboratory",
                "display": "Laboratory"
              }
            ],
            "text": "Laboratory"
          }
        ],
        "code": {
          "coding": [
            {
              "system": "http://loinc.org",
              "code": "62807-3",
              "display": "PhenX - serum creatinine assay for kidney function protocol 141401"
            }
          ],
          "text": "Serum Creatinine"
        },
        "subject": {
          "reference": "Patient/d8ae839e-8717-4d84-a244-b93fcf87abee"
        },
        "encounter": {
          "reference": "Encounter/5533e35f-12d1-4be4-b806-82914a71fe65"
        },
        "effectiveDateTime": "2025-10-17T10:22:04.270644Z",
        "interpretation": [
          {
            "coding": [
              {
                "system": "http://terminology.hl7.org/CodeSystem/v3-ObservationInterpretation",
                "code": "N",
                "display": "Normal"
              }
            ]
          }
        ],
        "note": [
          {
            "text": "Definition: https://loinc.org/62807-3/"
          }
        ]
      },
      "request": {
        "method": "POST",
        "url": "Observation"
      }
    },
    {
      "fullUrl": "urn:uuid:0e69ca4c-7fbb-4a36-a91f-040258bf2c60",
      "resource": {
        "resourceType": "Observation",
        "id": "0e69ca4c-7fbb-4a36-a91f-040258bf2c60",
        "status": "final",
        "category": [
          {
            "coding": [
              {
                "system": "http://terminology.hl7.org/CodeSystem/observation-category",
                "code": "laboratory",
                "display": "Laboratory"
              }
            ],
            "text": "Laboratory"
          }
        ],
        "code": {
          "coding": [
            {
              "system": "http://loinc.org",
              "code": "18729-4",
              "display": "Urinalysis studies"
            }
          ],
          "text": "Urinalysis"
        },
        "subject": {
          "reference": "Patient/d8ae839e-8717-4d84-a244-b93fcf87abee"
        },
        "encounter": {
          "reference": "Encounter/5533e35f-12d1-4be4-b806-82914a71fe65"
        },
        "effectiveDateTime": "2025-10-17T10:22:04.476003Z",
        "interpretation": [
          {
            "coding": [
              {
                "system": "http://terminology.hl7.org/CodeSystem/v3-ObservationInterpretation",
                "code": "A",
                "display": "Abnormal"
              }
            ]
          }
        ],
        "note": [
          {
            "text": "Definition: https://loinc.org/18729-4/"
          }
        ]
      },
      "request": {
        "method": "POST",
        "url": "Observation"
      }
    },
    {
      "fullUrl": "urn:uuid:4a4bc2f3-7247-4090-b2ba-5151ac3c53d6",
      "resource": {
        "resourceType": "Observation",
        "id": "4a4bc2f3-7247-4090-b2ba-5151ac3c53d6",
        "status": "final",
        "category": [
          {
            "coding": [
              {
                "system": "http://terminology.hl7.org/CodeSystem/observation-category",
                "code": "laboratory",
                "display": "Laboratory"
              }
            ],
            "text": "Laboratory"
          }
        ],
        "code": {
          "coding": [
            {
              "system": "http://loinc.org",
              "code": "unknown",
              "display": "α-galactosidase A activity"
            }
          ],
          "text": "α-galactosidase A activity"
        },
        "subject": {
          "reference": "Patient/d8ae839e-8717-4d84-a244-b93fcf87abee"
        },
        "encounter": {
          "reference": "Encounter/5533e35f-12d1-4be4-b806-82914a71fe65"
        },
        "effectiveDateTime": "2025-10-17T10:22:04.680478Z",
        "interpretation": [
          {
            "coding": [
              {
                "system": "http://terminology.hl7.org/CodeSystem/v3-ObservationInterpretation",
                "code": "L",
                "display": "Low"
              }
            ]
          }
        ]
      },
      "request": {
        "method": "POST",
        "url": "Observation"
      }
    },
    {
      "fullUrl": "urn:uuid:6623e51b-5405-49ca-b22e-9fe52a2cd5c0",
      "resource": {
        "resourceType": "Observation",
        "id": "6623e51b-5405-49ca-b22e-9fe52a2cd5c0",
        "status": "final",
        "category": [
          {
            "coding": [
              {
                "system": "http://terminology.hl7.org/CodeSystem/observation-category",
                "code": "exam",
                "display": "Exam"
              }
            ],
            "text": "Exam"
          }
        ],
        "code": {
          "coding": [
            {
              "system": "http://snomed.info/sct",
              "code": "36031001",
              "display": "Burning feet"
            }
          ],
          "text": "Burning pain in hands and feet"
        },
        "subject": {
          "reference": "Patient/d8ae839e-8717-4d84-a244-b93fcf87abee"
        },
        "encounter": {
          "reference": "Encounter/5533e35f-12d1-4be4-b806-82914a71fe65"
        },
        "effectivePeriod": {
          "start": "2025-10-17T10:22:06.323128Z"
        },
        "valueBoolean": true,
        "note": [
          {
            "text": "Definition: https://snomed.info/id/36031001"
          }
        ]
      },
      "request": {
        "method": "POST",
        "url": "Observation"
      }
    },
    {
      "fullUrl": "urn:uuid:bf7a135d-9161-4c63-a641-00eddecfb1c8",
      "resource": {
        "resourceType": "Observation",
        "id": "bf7a135d-9161-4c63-a641-00eddecfb1c8",
        "status": "final",
        "category": [
          {
            "coding": [
              {
                "system": "http://terminology.hl7.org/CodeSystem/observation-category",
                "code": "exam",
                "display": "Exam"
              }
            ],
            "text": "Exam"
          }
        ],
        "code": {
          "coding": [
            {
              "system": "http://snomed.info/sct",
              "code": "415690000",
              "display": "Sweating"
            }
          ],
          "text": "Decreased sweating"
        },
        "subject": {
          "reference": "Patient/d8ae839e-8717-4d84-a244-b93fcf87abee"
        },
        "encounter": {
          "reference": "Encounter/5533e35f-12d1-4be4-b806-82914a71fe65"
        },
        "effectivePeriod": {
          "start": "2025-10-17T10:22:08.064701Z"
        },
        "valueBoolean": true,
        "note": [
          {
            "text": "Definition: https://snomed.info/id/415690000"
          }
        ]
      },
      "request": {
        "method": "POST",
        "url": "Observation"
      }
    },
    {
      "fullUrl": "urn:uuid:21fb44f9-e983-402e-a522-a2514b817e6e",
      "resource": {
        "resourceType": "Observation",
        "id": "21fb44f9-e983-402e-a522-a2514b817e6e",
        "status": "final",
        "category": [
          {
            "coding": [
              {
                "system": "http://terminology.hl7.org/CodeSystem/observation-category",
                "code": "exam",
                "display": "Exam"
              }
            ],
            "text": "Exam"
          }
        ],
        "code": {
          "coding": [
            {
              "system": "http://snomed.info/sct",
              "code": "421331003",
              "display": "Twice a day after meals"
            }
          ],
          "text": "Abdominal pain after meals"
        },
        "subject": {
          "reference": "Patient/d8ae839e-8717-4d84-a244-b93fcf87abee"
        },
        "encounter": {
          "reference": "Encounter/5533e35f-12d1-4be4-b806-82914a71fe65"
        },
        "effectivePeriod": {
          "start": "2025-10-17T10:22:09.704292Z"
        },
        "valueBoolean": true,
        "note": [
          {
            "text": "Definition: https://snomed.info/id/421331003"
          }
        ]
      },
      "request": {
        "method": "POST",
        "url": "Observation"
      }
    }
  ]
}