{
  "resourceType": "Bundle",
  "type": "transaction",
  "entry": [
    {
      "fullUrl": "urn:uuid:d2dfa825-a216-4396-98ac-a966e9cb5652",
      "resource": {
        "resourceType": "Patient",
        "id": "d2dfa825-a216-4396-98ac-a966e9cb5652",
        "name": [
          {
            "family": "Popova",
            "given": [
              "Kristina"
            ]
          }
        ],
        "gender": "female",
        "birthDate": "2002-07-04",
        "address": [
          {}
        ]
      },
      "request": {
        "method": "POST",
        "url": "Patient"
      }
    },
    {
      "fullUrl": "urn:uuid:e10e207c-b1cc-40f9-8abc-6c24d87f61a8",
      "resource": {
        "resourceType": "Encounter",
        "id": "e10e207c-b1cc-40f9-8abc-6c24d87f61a8",
        "identifier": [
          {
            "use": "temp",
            "value": "Encounter_Kristina Popova_20251023103555"
          }
        ],
        "status": "completed",
        "priority": {
          "coding": [
            {
              "system": "http://snomed.info/sct",
              "code": "17621005",
              "display": "Normal"
            }
          ]
        },
        "type": [
          {
            "coding": [
              {
                "system": "http://snomed.info/sct",
                "code": "11429006",
                "display": "Consultation"
              }
            ]
          }
        ],
        "subject": {
          "reference": "Patient/d2dfa825-a216-4396-98ac-a966e9cb5652",
          "display": "Kristina Popova"
        },
        "reason": [
          {
            "value": [
              {
                "concept": {
                  "text": "recurrent episodes of urticarial rash accompanied by joint pain and low-grade fever"
                }
              }
            ]
          }
        ]
      },
      "request": {
        "method": "POST",
        "url": "Encounter"
      }
    },
    {
      "fullUrl": "urn:uuid:6854b0b2-7d49-4b9d-a378-b485ac4e5646",
      "resource": {
        "resourceType": "Observation",
        "id": "6854b0b2-7d49-4b9d-a378-b485ac4e5646",
        "status": "final",
        "category": [
          {
            "coding": [
              {
                "system": "http://terminology.hl7.org/CodeSystem/observation-category",
                "code": "laboratory",
                "display": "Laboratory"
              }
            ],
            "text": "Laboratory"
          }
        ],
        "code": {
          "coding": [
            {
              "system": "http://loinc.org",
              "code": "35648-5",
              "display": "CRP Quint SerPl Qn HS"
            }
          ],
          "text": "C-Reactive Protein"
        },
        "subject": {
          "reference": "Patient/d2dfa825-a216-4396-98ac-a966e9cb5652"
        },
        "encounter": {
          "reference": "Encounter/e10e207c-b1cc-40f9-8abc-6c24d87f61a8"
        },
        "effectiveDateTime": "2025-10-16",
        "valueQuantity": {
          "value": 28.0,
          "unit": "mg/L",
          "system": "http://unitsofmeasure.org",
          "code": "mg/L"
        },
        "interpretation": [
          {
            "coding": [
              {
                "system": "http://terminology.hl7.org/CodeSystem/v3-ObservationInterpretation",
                "code": "H",
                "display": "High"
              }
            ]
          }
        ],
        "note": [
          {
            "text": "Definition: https://loinc.org/35648-5/"
          }
        ]
      },
      "request": {
        "method": "POST",
        "url": "Observation"
      }
    },
    {
      "fullUrl": "urn:uuid:b509aaf7-052c-465f-80bf-1e8260b7f2c0",
      "resource": {
        "resourceType": "Observation",
        "id": "b509aaf7-052c-465f-80bf-1e8260b7f2c0",
        "status": "final",
        "category": [
          {
            "coding": [
              {
                "system": "http://terminology.hl7.org/CodeSystem/observation-category",
                "code": "laboratory",
                "display": "Laboratory"
              }
            ],
            "text": "Laboratory"
          }
        ],
        "code": {
          "coding": [
            {
              "system": "http://loinc.org",
              "code": "30341-2",
              "display": "Erythrocyte Sed Rat Bld"
            }
          ],
          "text": "Erythrocyte Sedimentation Rate"
        },
        "subject": {
          "reference": "Patient/d2dfa825-a216-4396-98ac-a966e9cb5652"
        },
        "encounter": {
          "reference": "Encounter/e10e207c-b1cc-40f9-8abc-6c24d87f61a8"
        },
        "effectiveDateTime": "2025-10-16",
        "valueQuantity": {
          "value": 40.0,
          "unit": "mm/h",
          "system": "http://unitsofmeasure.org",
          "code": "mm/h"
        },
        "interpretation": [
          {
            "coding": [
              {
                "system": "http://terminology.hl7.org/CodeSystem/v3-ObservationInterpretation",
                "code": "H",
                "display": "High"
              }
            ]
          }
        ],
        "note": [
          {
            "text": "Definition: https://loinc.org/30341-2/"
          }
        ]
      },
      "request": {
        "method": "POST",
        "url": "Observation"
      }
    },
    {
      "fullUrl": "urn:uuid:5781bb42-924e-42ca-a103-1e0420ba07a7",
      "resource": {
        "resourceType": "Observation",
        "id": "5781bb42-924e-42ca-a103-1e0420ba07a7",
        "status": "final",
        "category": [
          {
            "coding": [
              {
                "system": "http://terminology.hl7.org/CodeSystem/observation-category",
                "code": "exam",
                "display": "Exam"
              }
            ],
            "text": "Exam"
          }
        ],
        "code": {
          "coding": [
            {
              "system": "http://snomed.info/sct",
              "code": "402656007",
              "display": "Urticarial vasculitis"
            }
          ],
          "text": "Urticarial rash"
        },
        "subject": {
          "reference": "Patient/d2dfa825-a216-4396-98ac-a966e9cb5652"
        },
        "encounter": {
          "reference": "Encounter/e10e207c-b1cc-40f9-8abc-6c24d87f61a8"
        },
        "effectivePeriod": {
          "start": "2025-10-16"
        },
        "valueBoolean": true,
        "interpretation": [
          {
            "coding": [
              {
                "system": "http://terminology.hl7.org/CodeSystem/v3-ObservationInterpretation",
                "code": "A",
                "display": "Abnormal"
              }
            ],
            "text": "Abnormal"
          }
        ],
        "note": [
          {
            "text": "Definition: https://snomed.info/id/402656007"
          }
        ]
      },
      "request": {
        "method": "POST",
        "url": "Observation"
      }
    },
    {
      "fullUrl": "urn:uuid:2844f571-b1c0-452c-bb6b-88016a1ebe8f",
      "resource": {
        "resourceType": "Observation",
        "id": "2844f571-b1c0-452c-bb6b-88016a1ebe8f",
        "status": "final",
        "category": [
          {
            "coding": [
              {
                "system": "http://terminology.hl7.org/CodeSystem/observation-category",
                "code": "exam",
                "display": "Exam"
              }
            ],
            "text": "Exam"
          }
        ],
        "code": {
          "coding": [
            {
              "system": "http://snomed.info/sct",
              "code": "57676002",
              "display": "Joint pain"
            }
          ],
          "text": "Joint pain"
        },
        "subject": {
          "reference": "Patient/d2dfa825-a216-4396-98ac-a966e9cb5652"
        },
        "encounter": {
          "reference": "Encounter/e10e207c-b1cc-40f9-8abc-6c24d87f61a8"
        },
        "effectivePeriod": {
          "start": "2025-10-16"
        },
        "valueBoolean": true,
        "note": [
          {
            "text": "Definition: https://snomed.info/id/57676002"
          }
        ]
      },
      "request": {
        "method": "POST",
        "url": "Observation"
      }
    },
    {
      "fullUrl": "urn:uuid:c07b6873-6d0a-4528-9fc2-8717c5b1c69b",
      "resource": {
        "resourceType": "Observation",
        "id": "c07b6873-6d0a-4528-9fc2-8717c5b1c69b",
        "status": "final",
        "category": [
          {
            "coding": [
              {
                "system": "http://terminology.hl7.org/CodeSystem/observation-category",
                "code": "exam",
                "display": "Exam"
              }
            ],
            "text": "Exam"
          }
        ],
        "code": {
          "coding": [
            {
              "system": "http://snomed.info/sct",
              "code": "369766003",
              "display": "Low grade (lymphoma)"
            }
          ],
          "text": "Low-grade fever"
        },
        "subject": {
          "reference": "Patient/d2dfa825-a216-4396-98ac-a966e9cb5652"
        },
        "encounter": {
          "reference": "Encounter/e10e207c-b1cc-40f9-8abc-6c24d87f61a8"
        },
        "effectivePeriod": {
          "start": "2025-10-16"
        },
        "valueBoolean": true,
        "interpretation": [
          {
            "coding": [
              {
                "system": "http://terminology.hl7.org/CodeSystem/v3-ObservationInterpretation",
                "code": "A",
                "display": "Abnormal"
              }
            ],
            "text": "Abnormal"
          }
        ],
        "note": [
          {
            "text": "Definition: https://snomed.info/id/369766003"
          }
        ]
      },
      "request": {
        "method": "POST",
        "url": "Observation"
      }
    },
    {
      "fullUrl": "urn:uuid:5e139ed8-ad3a-4bc8-b83f-2b7f0e593335",
      "resource": {
        "resourceType": "Observation",
        "id": "5e139ed8-ad3a-4bc8-b83f-2b7f0e593335",
        "status": "final",
        "category": [
          {
            "coding": [
              {
                "system": "http://terminology.hl7.org/CodeSystem/observation-category",
                "code": "vital-signs",
                "display": "Vital Signs"
              }
            ],
            "text": "Vital Signs"
          }
        ],
        "code": {
          "coding": [
            {
              "system": "http://loinc.org",
              "code": "8310-5",
              "display": "Body temperature"
            }
          ],
          "text": "temperature"
        },
        "subject": {
          "reference": "Patient/d2dfa825-a216-4396-98ac-a966e9cb5652"
        },
        "encounter": {
          "reference": "Encounter/e10e207c-b1cc-40f9-8abc-6c24d87f61a8"
        },
        "effectiveDateTime": "2025-10-16",
        "valueQuantity": {
          "value": 37.9,
          "unit": "°C",
          "system": "http://unitsofmeasure.org",
          "code": "°C"
        },
        "interpretation": [
          {
            "coding": [
              {
                "system": "http://terminology.hl7.org/CodeSystem/v3-ObservationInterpretation",
                "code": "N",
                "display": "Normal"
              }
            ],
            "text": "Normal"
          }
        ]
      },
      "request": {
        "method": "POST",
        "url": "Observation"
      }
    },
    {
      "fullUrl": "urn:uuid:f9818363-949d-4455-a91a-da60a5b8537b",
      "resource": {
        "resourceType": "Observation",
        "id": "f9818363-949d-4455-a91a-da60a5b8537b",
        "status": "final",
        "category": [
          {
            "coding": [
              {
                "system": "http://terminology.hl7.org/CodeSystem/observation-category",
                "code": "vital-signs",
                "display": "Vital Signs"
              }
            ],
            "text": "Vital Signs"
          }
        ],
        "code": {
          "coding": [
            {
              "system": "http://loinc.org",
              "code": "62733-1",
              "display": "PhenX - respiratory - pulse oximetry - rest protocol 091101"
            }
          ],
          "text": "pulse"
        },
        "subject": {
          "reference": "Patient/d2dfa825-a216-4396-98ac-a966e9cb5652"
        },
        "encounter": {
          "reference": "Encounter/e10e207c-b1cc-40f9-8abc-6c24d87f61a8"
        },
        "effectiveDateTime": "2025-10-16",
        "valueQuantity": {
          "value": 82.0,
          "unit": "bpm",
          "system": "http://unitsofmeasure.org",
          "code": "bpm"
        },
        "interpretation": [
          {
            "coding": [
              {
                "system": "http://terminology.hl7.org/CodeSystem/v3-ObservationInterpretation",
                "code": "N",
                "display": "Normal"
              }
            ],
            "text": "Normal"
          }
        ]
      },
      "request": {
        "method": "POST",
        "url": "Observation"
      }
    },
    {
      "fullUrl": "urn:uuid:582c0620-b754-4ba5-8aa4-d5bc899c5a76",
      "resource": {
        "resourceType": "List",
        "id": "582c0620-b754-4ba5-8aa4-d5bc899c5a76",
        "contained": [
          {
            "resourceType": "FamilyMemberHistory",
            "id": "fmh-1",
            "status": "completed",
            "patient": {
              "reference": "Patient/d2dfa825-a216-4396-98ac-a966e9cb5652"
            },
            "relationship": {
              "coding": [
                {
                  "system": "http://snomed.info/sct",
                  "code": "72705000",
                  "display": "Mother"
                }
              ]
            },
            "deceasedBoolean": false,
            "condition": [
              {
                "code": {
                  "coding": [
                    {
                      "system": "http://snomed.info/sct",
                      "code": "278499009",
                      "display": "Episodic"
                    }
                  ]
                }
              },
              {
                "code": {
                  "coding": [
                    {
                      "system": "http://snomed.info/sct",
                      "code": "15188001",
                      "display": "Hearing loss"
                    }
                  ]
                }
              }
            ]
          }
        ],
        "status": "current",
        "mode": "snapshot",
        "code": {
          "coding": [
            {
              "system": "http://loinc.org",
              "code": "8670-2",
              "display": "History of family member diseases"
            }
          ]
        },
        "subject": [
          {
            "reference": "Patient/d2dfa825-a216-4396-98ac-a966e9cb5652"
          }
        ],
        "entry": [
          {
            "item": {
              "reference": "#fmh-1"
            }
          }
        ]
      },
      "request": {
        "method": "POST",
        "url": "FamilyMemberHistory"
      }
    }
  ]
}