{
  "resourceType": "Bundle",
  "type": "transaction",
  "entry": [
    {
      "fullUrl": "urn:uuid:fade29a2-6968-4d31-8ab9-24bcf593cb93",
      "resource": {
        "resourceType": "Patient",
        "id": "fade29a2-6968-4d31-8ab9-24bcf593cb93",
        "name": [
          {
            "family": "Petrov",
            "given": [
              "Andrei"
            ]
          }
        ],
        "gender": "male",
        "address": [
          {}
        ]
      },
      "request": {
        "method": "POST",
        "url": "Patient"
      }
    },
    {
      "fullUrl": "urn:uuid:ce26ca7e-4040-4562-b6d6-d719ad0dec03",
      "resource": {
        "resourceType": "Encounter",
        "id": "ce26ca7e-4040-4562-b6d6-d719ad0dec03",
        "identifier": [
          {
            "use": "temp",
            "value": "Encounter_Andrei Petrov_20251017182450"
          }
        ],
        "status": "completed",
        "priority": {
          "coding": [
            {
              "system": "http://snomed.info/sct",
              "code": "17621005",
              "display": "Normal"
            }
          ]
        },
        "type": [
          {
            "coding": [
              {
                "system": "http://snomed.info/sct",
                "code": "11429006",
                "display": "Consultation"
              }
            ]
          }
        ],
        "subject": {
          "reference": "Patient/fade29a2-6968-4d31-8ab9-24bcf593cb93",
          "display": "Andrei Petrov"
        },
        "reason": [
          {
            "value": [
              {
                "concept": {
                  "text": "progressive enlargement of hands and feet, headaches, and excessive sweating"
                }
              }
            ]
          }
        ]
      },
      "request": {
        "method": "POST",
        "url": "Encounter"
      }
    },
    {
      "fullUrl": "urn:uuid:1251eb60-adcb-4717-8416-c9877e14a185",
      "resource": {
        "resourceType": "Observation",
        "id": "1251eb60-adcb-4717-8416-c9877e14a185",
        "status": "final",
        "category": [
          {
            "coding": [
              {
                "system": "http://terminology.hl7.org/CodeSystem/observation-category",
                "code": "laboratory",
                "display": "Laboratory"
              }
            ],
            "text": "Laboratory"
          }
        ],
        "code": {
          "coding": [
            {
              "system": "http://loinc.org",
              "code": "42788-0",
              "display": "IGF-IR Ag Tiss Ql ImStn"
            }
          ],
          "text": "IGF-1"
        },
        "subject": {
          "reference": "Patient/fade29a2-6968-4d31-8ab9-24bcf593cb93"
        },
        "encounter": {
          "reference": "Encounter/ce26ca7e-4040-4562-b6d6-d719ad0dec03"
        },
        "effectiveDateTime": "2025-10-16",
        "interpretation": [
          {
            "coding": [
              {
                "system": "http://terminology.hl7.org/CodeSystem/v3-ObservationInterpretation",
                "code": "H",
                "display": "High"
              }
            ]
          }
        ],
        "note": [
          {
            "text": "Definition: https://loinc.org/42788-0/"
          }
        ]
      },
      "request": {
        "method": "POST",
        "url": "Observation"
      }
    },
    {
      "fullUrl": "urn:uuid:17dd9130-2075-4e6f-b86b-aaa9e3a67820",
      "resource": {
        "resourceType": "Observation",
        "id": "17dd9130-2075-4e6f-b86b-aaa9e3a67820",
        "status": "final",
        "category": [
          {
            "coding": [
              {
                "system": "http://terminology.hl7.org/CodeSystem/observation-category",
                "code": "laboratory",
                "display": "Laboratory"
              }
            ],
            "text": "Laboratory"
          }
        ],
        "code": {
          "coding": [
            {
              "system": "http://loinc.org",
              "code": "unknown",
              "display": "Impaired Fasting Glucose"
            }
          ],
          "text": "Impaired Fasting Glucose"
        },
        "subject": {
          "reference": "Patient/fade29a2-6968-4d31-8ab9-24bcf593cb93"
        },
        "encounter": {
          "reference": "Encounter/ce26ca7e-4040-4562-b6d6-d719ad0dec03"
        },
        "effectiveDateTime": "2025-10-16",
        "interpretation": [
          {
            "coding": [
              {
                "system": "http://terminology.hl7.org/CodeSystem/v3-ObservationInterpretation",
                "code": "A",
                "display": "Abnormal"
              }
            ]
          }
        ]
      },
      "request": {
        "method": "POST",
        "url": "Observation"
      }
    },
    {
      "fullUrl": "urn:uuid:6ea27467-a1ee-4e0c-a80a-e71f0dcd227e",
      "resource": {
        "resourceType": "Observation",
        "id": "6ea27467-a1ee-4e0c-a80a-e71f0dcd227e",
        "status": "final",
        "category": [
          {
            "coding": [
              {
                "system": "http://terminology.hl7.org/CodeSystem/observation-category",
                "code": "exam",
                "display": "Exam"
              }
            ],
            "text": "Exam"
          }
        ],
        "code": {
          "coding": [
            {
              "system": "http://snomed.info/sct",
              "code": "248423008",
              "display": "Deprivation hands and feet"
            }
          ],
          "text": "Progressive enlargement of hands and feet"
        },
        "subject": {
          "reference": "Patient/fade29a2-6968-4d31-8ab9-24bcf593cb93"
        },
        "encounter": {
          "reference": "Encounter/ce26ca7e-4040-4562-b6d6-d719ad0dec03"
        },
        "effectivePeriod": {
          "start": "2025-10-16"
        },
        "valueBoolean": true,
        "note": [
          {
            "text": "Definition: https://snomed.info/id/248423008"
          }
        ]
      },
      "request": {
        "method": "POST",
        "url": "Observation"
      }
    },
    {
      "fullUrl": "urn:uuid:b2d21aaa-2538-4b8d-99b0-c7a71e9d33b9",
      "resource": {
        "resourceType": "Observation",
        "id": "b2d21aaa-2538-4b8d-99b0-c7a71e9d33b9",
        "status": "final",
        "category": [
          {
            "coding": [
              {
                "system": "http://terminology.hl7.org/CodeSystem/observation-category",
                "code": "exam",
                "display": "Exam"
              }
            ],
            "text": "Exam"
          }
        ],
        "code": {
          "coding": [
            {
              "system": "http://snomed.info/sct"
            }
          ],
          "text": "Headaches"
        },
        "subject": {
          "reference": "Patient/fade29a2-6968-4d31-8ab9-24bcf593cb93"
        },
        "encounter": {
          "reference": "Encounter/ce26ca7e-4040-4562-b6d6-d719ad0dec03"
        },
        "effectivePeriod": {
          "start": "2025-10-16"
        },
        "valueBoolean": true,
        "note": [
          {
            "text": "Definition: https://snomed.info/id/None"
          }
        ]
      },
      "request": {
        "method": "POST",
        "url": "Observation"
      }
    },
    {
      "fullUrl": "urn:uuid:3d5c9b20-3baa-4be3-9ae6-d02d0d2364ce",
      "resource": {
        "resourceType": "Observation",
        "id": "3d5c9b20-3baa-4be3-9ae6-d02d0d2364ce",
        "status": "final",
        "category": [
          {
            "coding": [
              {
                "system": "http://terminology.hl7.org/CodeSystem/observation-category",
                "code": "exam",
                "display": "Exam"
              }
            ],
            "text": "Exam"
          }
        ],
        "code": {
          "coding": [
            {
              "system": "http://snomed.info/sct",
              "code": "52613005",
              "display": "Excessive sweating"
            }
          ],
          "text": "Excessive sweating"
        },
        "subject": {
          "reference": "Patient/fade29a2-6968-4d31-8ab9-24bcf593cb93"
        },
        "encounter": {
          "reference": "Encounter/ce26ca7e-4040-4562-b6d6-d719ad0dec03"
        },
        "effectivePeriod": {
          "start": "2025-10-16"
        },
        "valueBoolean": true,
        "note": [
          {
            "text": "Definition: https://snomed.info/id/52613005"
          }
        ]
      },
      "request": {
        "method": "POST",
        "url": "Observation"
      }
    },
    {
      "fullUrl": "urn:uuid:f19a0681-db76-4059-80c9-badda4f44df9",
      "resource": {
        "resourceType": "Observation",
        "id": "f19a0681-db76-4059-80c9-badda4f44df9",
        "status": "final",
        "category": [
          {
            "coding": [
              {
                "system": "http://terminology.hl7.org/CodeSystem/observation-category",
                "code": "exam",
                "display": "Exam"
              }
            ],
            "text": "Exam"
          }
        ],
        "code": {
          "coding": [
            {
              "system": "http://snomed.info/sct",
              "code": "302018006",
              "display": "Change in facial features"
            }
          ],
          "text": "Coarsening of facial features"
        },
        "subject": {
          "reference": "Patient/fade29a2-6968-4d31-8ab9-24bcf593cb93"
        },
        "encounter": {
          "reference": "Encounter/ce26ca7e-4040-4562-b6d6-d719ad0dec03"
        },
        "effectivePeriod": {
          "start": "2025-10-16"
        },
        "valueBoolean": true,
        "note": [
          {
            "text": "Definition: https://snomed.info/id/302018006"
          }
        ]
      },
      "request": {
        "method": "POST",
        "url": "Observation"
      }
    },
    {
      "fullUrl": "urn:uuid:5010be27-576d-4f7b-b244-22cb32babc70",
      "resource": {
        "resourceType": "Observation",
        "id": "5010be27-576d-4f7b-b244-22cb32babc70",
        "status": "final",
        "category": [
          {
            "coding": [
              {
                "system": "http://terminology.hl7.org/CodeSystem/observation-category",
                "code": "vital-signs",
                "display": "Vital Signs"
              }
            ],
            "text": "Vital Signs"
          }
        ],
        "code": {
          "coding": [
            {
              "system": "http://loinc.org",
              "code": "11753-1",
              "display": "EFW from AC+HC"
            }
          ],
          "text": "head_circumference"
        },
        "subject": {
          "reference": "Patient/fade29a2-6968-4d31-8ab9-24bcf593cb93"
        },
        "encounter": {
          "reference": "Encounter/ce26ca7e-4040-4562-b6d6-d719ad0dec03"
        },
        "effectiveDateTime": "2025-10-16",
        "interpretation": [
          {
            "coding": [
              {
                "system": "http://terminology.hl7.org/CodeSystem/v3-ObservationInterpretation",
                "code": "H",
                "display": "High"
              }
            ],
            "text": "High"
          }
        ]
      },
      "request": {
        "method": "POST",
        "url": "Observation"
      }
    },
    {
      "fullUrl": "urn:uuid:b53f97a7-23e6-4322-b75a-29a35b6320cf",
      "resource": {
        "resourceType": "Observation",
        "id": "b53f97a7-23e6-4322-b75a-29a35b6320cf",
        "status": "final",
        "category": [
          {
            "coding": [
              {
                "system": "http://terminology.hl7.org/CodeSystem/observation-category",
                "code": "vital-signs",
                "display": "Vital Signs"
              }
            ],
            "text": "Vital Signs"
          }
        ],
        "code": {
          "coding": [
            {
              "system": "http://loinc.org",
              "code": "8337-8",
              "display": "Bdy weight special circumstances"
            }
          ],
          "text": "weight"
        },
        "subject": {
          "reference": "Patient/fade29a2-6968-4d31-8ab9-24bcf593cb93"
        },
        "encounter": {
          "reference": "Encounter/ce26ca7e-4040-4562-b6d6-d719ad0dec03"
        },
        "effectiveDateTime": "2025-10-16",
        "interpretation": [
          {
            "coding": [
              {
                "system": "http://terminology.hl7.org/CodeSystem/v3-ObservationInterpretation",
                "code": "H",
                "display": "High"
              }
            ],
            "text": "High"
          }
        ]
      },
      "request": {
        "method": "POST",
        "url": "Observation"
      }
    },
    {
      "fullUrl": "urn:uuid:cfd2ad7c-0898-4cb9-a35d-6a2c321872ac",
      "resource": {
        "resourceType": "MedicationStatement",
        "id": "cfd2ad7c-0898-4cb9-a35d-6a2c321872ac",
        "status": "recorded",
        "medication": {
          "concept": {
            "coding": [
              {
                "system": "http://snomed.info/sct",
                "code": "372567009",
                "display": "Metformin"
              }
            ],
            "text": "Metformin"
          }
        },
        "subject": {
          "reference": "Patient/fade29a2-6968-4d31-8ab9-24bcf593cb93"
        },
        "encounter": {
          "reference": "Encounter/ce26ca7e-4040-4562-b6d6-d719ad0dec03"
        },
        "effectiveDateTime": "2025-10-16",
        "informationSource": [
          {
            "reference": "Patient/fade29a2-6968-4d31-8ab9-24bcf593cb93"
          }
        ]
      },
      "request": {
        "method": "POST",
        "url": "MedicationStatement"
      }
    },
    {
      "fullUrl": "urn:uuid:54cee6db-df88-4e67-b350-623ed74a15bb",
      "resource": {
        "resourceType": "List",
        "id": "54cee6db-df88-4e67-b350-623ed74a15bb",
        "contained": [
          {
            "resourceType": "FamilyMemberHistory",
            "id": "fmh-2",
            "status": "completed",
            "patient": {
              "reference": "Patient/fade29a2-6968-4d31-8ab9-24bcf593cb93"
            },
            "relationship": {
              "coding": [
                {
                  "system": "http://snomed.info/sct",
                  "code": "72705000",
                  "display": "Mother"
                }
              ]
            },
            "deceasedBoolean": false,
            "condition": [
              {
                "code": {
                  "coding": [
                    {
                      "system": "http://snomed.info/sct",
                      "code": "38341003",
                      "display": "Hypertensive disorder"
                    }
                  ]
                }
              }
            ]
          }
        ],
        "status": "current",
        "mode": "snapshot",
        "code": {
          "coding": [
            {
              "system": "http://loinc.org",
              "code": "8670-2",
              "display": "History of family member diseases"
            }
          ]
        },
        "subject": [
          {
            "reference": "Patient/fade29a2-6968-4d31-8ab9-24bcf593cb93"
          }
        ],
        "entry": [
          {
            "item": {
              "reference": "#fmh-2"
            }
          }
        ]
      },
      "request": {
        "method": "POST",
        "url": "FamilyMemberHistory"
      }
    }
  ]
}