{
  "resourceType": "Bundle",
  "type": "transaction",
  "entry": [
    {
      "fullUrl": "urn:uuid:279a3f82-6e7c-4003-b01f-6d256e90046c",
      "resource": {
        "resourceType": "Patient",
        "id": "279a3f82-6e7c-4003-b01f-6d256e90046c",
        "name": [
          {
            "family": "Ivanova",
            "given": [
              "Sofia"
            ]
          }
        ],
        "gender": "female",
        "birthDate": "1991-07-04",
        "address": [
          {}
        ]
      },
      "request": {
        "method": "POST",
        "url": "Patient"
      }
    },
    {
      "fullUrl": "urn:uuid:593e15de-f5ea-4c1f-8a36-af6a8eb79d82",
      "resource": {
        "resourceType": "Encounter",
        "id": "593e15de-f5ea-4c1f-8a36-af6a8eb79d82",
        "identifier": [
          {
            "use": "temp",
            "value": "Encounter_Sofia Ivanova_20251020131515"
          }
        ],
        "status": "completed",
        "priority": {
          "coding": [
            {
              "system": "http://snomed.info/sct",
              "code": "17621005",
              "display": "Normal"
            }
          ]
        },
        "type": [
          {
            "coding": [
              {
                "system": "http://snomed.info/sct",
                "code": "11429006",
                "display": "Consultation"
              }
            ]
          }
        ],
        "subject": {
          "reference": "Patient/279a3f82-6e7c-4003-b01f-6d256e90046c",
          "display": "Sofia Ivanova"
        },
        "reason": [
          {
            "value": [
              {
                "concept": {
                  "text": "subtle facial puffiness and mild fatigue over the past year"
                }
              }
            ]
          }
        ]
      },
      "request": {
        "method": "POST",
        "url": "Encounter"
      }
    },
    {
      "fullUrl": "urn:uuid:a99dd687-bc60-4cf5-abde-b70cb8ff4055",
      "resource": {
        "resourceType": "Observation",
        "id": "a99dd687-bc60-4cf5-abde-b70cb8ff4055",
        "status": "final",
        "category": [
          {
            "coding": [
              {
                "system": "http://terminology.hl7.org/CodeSystem/observation-category",
                "code": "laboratory",
                "display": "Laboratory"
              }
            ],
            "text": "Laboratory"
          }
        ],
        "code": {
          "coding": [
            {
              "system": "http://loinc.org",
              "code": "42788-0",
              "display": "IGF-IR Ag Tiss Ql ImStn"
            }
          ],
          "text": "IGF-1"
        },
        "subject": {
          "reference": "Patient/279a3f82-6e7c-4003-b01f-6d256e90046c"
        },
        "encounter": {
          "reference": "Encounter/593e15de-f5ea-4c1f-8a36-af6a8eb79d82"
        },
        "effectiveDateTime": "2025-10-16",
        "interpretation": [
          {
            "coding": [
              {
                "system": "http://terminology.hl7.org/CodeSystem/v3-ObservationInterpretation",
                "code": "H",
                "display": "High"
              }
            ]
          }
        ],
        "note": [
          {
            "text": "Definition: https://loinc.org/42788-0/"
          }
        ]
      },
      "request": {
        "method": "POST",
        "url": "Observation"
      }
    },
    {
      "fullUrl": "urn:uuid:e6f73f70-cd31-4d05-bca3-79d597c1db34",
      "resource": {
        "resourceType": "Observation",
        "id": "e6f73f70-cd31-4d05-bca3-79d597c1db34",
        "status": "final",
        "category": [
          {
            "coding": [
              {
                "system": "http://terminology.hl7.org/CodeSystem/observation-category",
                "code": "laboratory",
                "display": "Laboratory"
              }
            ],
            "text": "Laboratory"
          }
        ],
        "code": {
          "coding": [
            {
              "system": "http://loinc.org",
              "code": "62856-0",
              "display": "PhenX - oral glucose tolerance test protocol 141001"
            }
          ],
          "text": "Oral Glucose Tolerance Test"
        },
        "subject": {
          "reference": "Patient/279a3f82-6e7c-4003-b01f-6d256e90046c"
        },
        "encounter": {
          "reference": "Encounter/593e15de-f5ea-4c1f-8a36-af6a8eb79d82"
        },
        "effectiveDateTime": "2025-10-16",
        "interpretation": [
          {
            "coding": [
              {
                "system": "http://terminology.hl7.org/CodeSystem/v3-ObservationInterpretation",
                "code": "A",
                "display": "Abnormal"
              }
            ]
          }
        ],
        "note": [
          {
            "text": "Definition: https://loinc.org/62856-0/"
          }
        ]
      },
      "request": {
        "method": "POST",
        "url": "Observation"
      }
    },
    {
      "fullUrl": "urn:uuid:c3e6b783-1537-4af9-8654-01509e8e3bd9",
      "resource": {
        "resourceType": "Observation",
        "id": "c3e6b783-1537-4af9-8654-01509e8e3bd9",
        "status": "final",
        "category": [
          {
            "coding": [
              {
                "system": "http://terminology.hl7.org/CodeSystem/observation-category",
                "code": "exam",
                "display": "Exam"
              }
            ],
            "text": "Exam"
          }
        ],
        "code": {
          "coding": [
            {
              "system": "http://snomed.info/sct",
              "code": "71718006",
              "display": "Puffiness of skin"
            }
          ],
          "text": "Facial puffiness"
        },
        "subject": {
          "reference": "Patient/279a3f82-6e7c-4003-b01f-6d256e90046c"
        },
        "encounter": {
          "reference": "Encounter/593e15de-f5ea-4c1f-8a36-af6a8eb79d82"
        },
        "effectivePeriod": {
          "start": "2025-10-16"
        },
        "valueBoolean": true,
        "note": [
          {
            "text": "Definition: https://snomed.info/id/71718006"
          }
        ]
      },
      "request": {
        "method": "POST",
        "url": "Observation"
      }
    },
    {
      "fullUrl": "urn:uuid:6f0b9673-66e0-4397-971e-5f16428b35e4",
      "resource": {
        "resourceType": "Observation",
        "id": "6f0b9673-66e0-4397-971e-5f16428b35e4",
        "status": "final",
        "category": [
          {
            "coding": [
              {
                "system": "http://terminology.hl7.org/CodeSystem/observation-category",
                "code": "exam",
                "display": "Exam"
              }
            ],
            "text": "Exam"
          }
        ],
        "code": {
          "coding": [
            {
              "system": "http://snomed.info/sct",
              "code": "84229001",
              "display": "Fatigue"
            }
          ],
          "text": "Fatigue"
        },
        "subject": {
          "reference": "Patient/279a3f82-6e7c-4003-b01f-6d256e90046c"
        },
        "encounter": {
          "reference": "Encounter/593e15de-f5ea-4c1f-8a36-af6a8eb79d82"
        },
        "effectivePeriod": {
          "start": "2025-10-16"
        },
        "valueBoolean": true,
        "note": [
          {
            "text": "Definition: https://snomed.info/id/84229001"
          }
        ]
      },
      "request": {
        "method": "POST",
        "url": "Observation"
      }
    },
    {
      "fullUrl": "urn:uuid:c7ebe2a8-161d-447e-a8ae-a91a8bebd118",
      "resource": {
        "resourceType": "Observation",
        "id": "c7ebe2a8-161d-447e-a8ae-a91a8bebd118",
        "status": "final",
        "category": [
          {
            "coding": [
              {
                "system": "http://terminology.hl7.org/CodeSystem/observation-category",
                "code": "exam",
                "display": "Exam"
              }
            ],
            "text": "Exam"
          }
        ],
        "code": {
          "coding": [
            {
              "system": "http://snomed.info/sct",
              "code": "263899003",
              "display": "Thickened"
            }
          ],
          "text": "Thickened skin"
        },
        "subject": {
          "reference": "Patient/279a3f82-6e7c-4003-b01f-6d256e90046c"
        },
        "encounter": {
          "reference": "Encounter/593e15de-f5ea-4c1f-8a36-af6a8eb79d82"
        },
        "effectivePeriod": {
          "start": "2025-10-16"
        },
        "valueBoolean": true,
        "note": [
          {
            "text": "Definition: https://snomed.info/id/263899003"
          }
        ]
      },
      "request": {
        "method": "POST",
        "url": "Observation"
      }
    },
    {
      "fullUrl": "urn:uuid:97d96d03-6a0e-4530-b9fa-b2e6924d4f28",
      "resource": {
        "resourceType": "Observation",
        "id": "97d96d03-6a0e-4530-b9fa-b2e6924d4f28",
        "status": "final",
        "category": [
          {
            "coding": [
              {
                "system": "http://terminology.hl7.org/CodeSystem/observation-category",
                "code": "exam",
                "display": "Exam"
              }
            ],
            "text": "Exam"
          }
        ],
        "code": {
          "coding": [
            {
              "system": "http://snomed.info/sct",
              "code": "90145001",
              "display": "Frontal bossing"
            }
          ],
          "text": "Frontal bossing"
        },
        "subject": {
          "reference": "Patient/279a3f82-6e7c-4003-b01f-6d256e90046c"
        },
        "encounter": {
          "reference": "Encounter/593e15de-f5ea-4c1f-8a36-af6a8eb79d82"
        },
        "effectivePeriod": {
          "start": "2025-10-16"
        },
        "valueBoolean": true,
        "note": [
          {
            "text": "Definition: https://snomed.info/id/90145001"
          }
        ]
      },
      "request": {
        "method": "POST",
        "url": "Observation"
      }
    }
  ]
}