{
  "resourceType": "Bundle",
  "type": "transaction",
  "entry": [
    {
      "fullUrl": "urn:uuid:d1c177a4-0fc7-4a25-8ce8-0616885637c4",
      "resource": {
        "resourceType": "Patient",
        "id": "d1c177a4-0fc7-4a25-8ce8-0616885637c4",
        "name": [
          {
            "family": "Ivanova",
            "given": [
              "Sofia"
            ]
          }
        ],
        "gender": "female",
        "address": [
          {}
        ]
      },
      "request": {
        "method": "POST",
        "url": "Patient"
      }
    },
    {
      "fullUrl": "urn:uuid:9a2efee4-3d40-422d-a551-afe4c617566a",
      "resource": {
        "resourceType": "Encounter",
        "id": "9a2efee4-3d40-422d-a551-afe4c617566a",
        "identifier": [
          {
            "use": "temp",
            "value": "Encounter_Sofia Ivanova_20251017182509"
          }
        ],
        "status": "completed",
        "priority": {
          "coding": [
            {
              "system": "http://snomed.info/sct",
              "code": "17621005",
              "display": "Normal"
            }
          ]
        },
        "type": [
          {
            "coding": [
              {
                "system": "http://snomed.info/sct",
                "code": "11429006",
                "display": "Consultation"
              }
            ]
          }
        ],
        "subject": {
          "reference": "Patient/d1c177a4-0fc7-4a25-8ce8-0616885637c4",
          "display": "Sofia Ivanova"
        },
        "reason": [
          {
            "value": [
              {
                "concept": {
                  "text": "subtle facial puffiness and mild fatigue"
                }
              }
            ]
          }
        ]
      },
      "request": {
        "method": "POST",
        "url": "Encounter"
      }
    },
    {
      "fullUrl": "urn:uuid:bf289b52-7e90-4f09-a4f8-38a70e8e3ca2",
      "resource": {
        "resourceType": "Observation",
        "id": "bf289b52-7e90-4f09-a4f8-38a70e8e3ca2",
        "status": "final",
        "category": [
          {
            "coding": [
              {
                "system": "http://terminology.hl7.org/CodeSystem/observation-category",
                "code": "laboratory",
                "display": "Laboratory"
              }
            ],
            "text": "Laboratory"
          }
        ],
        "code": {
          "coding": [
            {
              "system": "http://loinc.org",
              "code": "42788-0",
              "display": "IGF-IR Ag Tiss Ql ImStn"
            }
          ],
          "text": "IGF-1"
        },
        "subject": {
          "reference": "Patient/d1c177a4-0fc7-4a25-8ce8-0616885637c4"
        },
        "encounter": {
          "reference": "Encounter/9a2efee4-3d40-422d-a551-afe4c617566a"
        },
        "effectiveDateTime": "2025-10-16",
        "interpretation": [
          {
            "coding": [
              {
                "system": "http://terminology.hl7.org/CodeSystem/v3-ObservationInterpretation",
                "code": "H",
                "display": "High"
              }
            ]
          }
        ],
        "note": [
          {
            "text": "Definition: https://loinc.org/42788-0/"
          }
        ]
      },
      "request": {
        "method": "POST",
        "url": "Observation"
      }
    },
    {
      "fullUrl": "urn:uuid:2de49525-8849-4edc-9140-60e9003b89d5",
      "resource": {
        "resourceType": "Observation",
        "id": "2de49525-8849-4edc-9140-60e9003b89d5",
        "status": "final",
        "category": [
          {
            "coding": [
              {
                "system": "http://terminology.hl7.org/CodeSystem/observation-category",
                "code": "laboratory",
                "display": "Laboratory"
              }
            ],
            "text": "Laboratory"
          }
        ],
        "code": {
          "coding": [
            {
              "system": "http://loinc.org",
              "code": "62856-0",
              "display": "PhenX - oral glucose tolerance test protocol 141001"
            }
          ],
          "text": "Oral Glucose Tolerance Test"
        },
        "subject": {
          "reference": "Patient/d1c177a4-0fc7-4a25-8ce8-0616885637c4"
        },
        "encounter": {
          "reference": "Encounter/9a2efee4-3d40-422d-a551-afe4c617566a"
        },
        "effectiveDateTime": "2025-10-16",
        "interpretation": [
          {
            "coding": [
              {
                "system": "http://terminology.hl7.org/CodeSystem/v3-ObservationInterpretation",
                "code": "A",
                "display": "Abnormal"
              }
            ]
          }
        ],
        "note": [
          {
            "text": "Definition: https://loinc.org/62856-0/"
          }
        ]
      },
      "request": {
        "method": "POST",
        "url": "Observation"
      }
    },
    {
      "fullUrl": "urn:uuid:3a2cb29e-8357-4975-8f07-b17ef5ea61af",
      "resource": {
        "resourceType": "Observation",
        "id": "3a2cb29e-8357-4975-8f07-b17ef5ea61af",
        "status": "final",
        "category": [
          {
            "coding": [
              {
                "system": "http://terminology.hl7.org/CodeSystem/observation-category",
                "code": "exam",
                "display": "Exam"
              }
            ],
            "text": "Exam"
          }
        ],
        "code": {
          "coding": [
            {
              "system": "http://snomed.info/sct",
              "code": "71718006",
              "display": "Puffiness of skin"
            }
          ],
          "text": "Facial puffiness"
        },
        "subject": {
          "reference": "Patient/d1c177a4-0fc7-4a25-8ce8-0616885637c4"
        },
        "encounter": {
          "reference": "Encounter/9a2efee4-3d40-422d-a551-afe4c617566a"
        },
        "effectivePeriod": {
          "start": "2025-10-16"
        },
        "valueBoolean": true,
        "note": [
          {
            "text": "Definition: https://snomed.info/id/71718006"
          }
        ]
      },
      "request": {
        "method": "POST",
        "url": "Observation"
      }
    },
    {
      "fullUrl": "urn:uuid:0aa543ca-1da4-457f-9e55-2ae406c66aed",
      "resource": {
        "resourceType": "Observation",
        "id": "0aa543ca-1da4-457f-9e55-2ae406c66aed",
        "status": "final",
        "category": [
          {
            "coding": [
              {
                "system": "http://terminology.hl7.org/CodeSystem/observation-category",
                "code": "exam",
                "display": "Exam"
              }
            ],
            "text": "Exam"
          }
        ],
        "code": {
          "coding": [
            {
              "system": "http://snomed.info/sct",
              "code": "84229001",
              "display": "Fatigue"
            }
          ],
          "text": "Fatigue"
        },
        "subject": {
          "reference": "Patient/d1c177a4-0fc7-4a25-8ce8-0616885637c4"
        },
        "encounter": {
          "reference": "Encounter/9a2efee4-3d40-422d-a551-afe4c617566a"
        },
        "effectivePeriod": {
          "start": "2025-10-16"
        },
        "valueBoolean": true,
        "note": [
          {
            "text": "Definition: https://snomed.info/id/84229001"
          }
        ]
      },
      "request": {
        "method": "POST",
        "url": "Observation"
      }
    }
  ]
}