{
  "resourceType": "Bundle",
  "type": "transaction",
  "entry": [
    {
      "fullUrl": "urn:uuid:f9477b11-af40-46f7-92c7-c7fbe84777b3",
      "resource": {
        "resourceType": "Patient",
        "id": "f9477b11-af40-46f7-92c7-c7fbe84777b3",
        "name": [
          {
            "family": "Petrov",
            "given": [
              "Andrei"
            ]
          }
        ],
        "gender": "male",
        "address": [
          {}
        ]
      },
      "request": {
        "method": "POST",
        "url": "Patient"
      }
    },
    {
      "fullUrl": "urn:uuid:fbf450eb-0210-4262-97e8-743d4412c277",
      "resource": {
        "resourceType": "Encounter",
        "id": "fbf450eb-0210-4262-97e8-743d4412c277",
        "identifier": [
          {
            "use": "temp",
            "value": "Encounter_Andrei Petrov_20251017122021"
          }
        ],
        "status": "completed",
        "priority": {
          "coding": [
            {
              "system": "http://snomed.info/sct",
              "code": "17621005",
              "display": "Normal"
            }
          ]
        },
        "type": [
          {
            "coding": [
              {
                "system": "http://snomed.info/sct",
                "code": "11429006",
                "display": "Consultation"
              }
            ]
          }
        ],
        "subject": {
          "reference": "Patient/f9477b11-af40-46f7-92c7-c7fbe84777b3",
          "display": "Andrei Petrov"
        },
        "reason": [
          {
            "value": [
              {
                "concept": {
                  "text": "progressive enlargement of hands and feet, headaches, and excessive sweating"
                }
              }
            ]
          }
        ]
      },
      "request": {
        "method": "POST",
        "url": "Encounter"
      }
    },
    {
      "fullUrl": "urn:uuid:3bcf79e8-eac2-4067-b601-e17d21b7c213",
      "resource": {
        "resourceType": "Observation",
        "id": "3bcf79e8-eac2-4067-b601-e17d21b7c213",
        "status": "final",
        "category": [
          {
            "coding": [
              {
                "system": "http://terminology.hl7.org/CodeSystem/observation-category",
                "code": "laboratory",
                "display": "Laboratory"
              }
            ],
            "text": "Laboratory"
          }
        ],
        "code": {
          "coding": [
            {
              "system": "http://loinc.org",
              "code": "42788-0",
              "display": "IGF-IR Ag Tiss Ql ImStn"
            }
          ],
          "text": "IGF-1"
        },
        "subject": {
          "reference": "Patient/f9477b11-af40-46f7-92c7-c7fbe84777b3"
        },
        "encounter": {
          "reference": "Encounter/fbf450eb-0210-4262-97e8-743d4412c277"
        },
        "effectiveDateTime": "2025-10-17T10:20:22.061559Z",
        "interpretation": [
          {
            "coding": [
              {
                "system": "http://terminology.hl7.org/CodeSystem/v3-ObservationInterpretation",
                "code": "H",
                "display": "High"
              }
            ]
          }
        ],
        "note": [
          {
            "text": "Definition: https://loinc.org/42788-0/"
          }
        ]
      },
      "request": {
        "method": "POST",
        "url": "Observation"
      }
    },
    {
      "fullUrl": "urn:uuid:dacc52e1-86a6-4c6f-aab3-3a4b6ad30d07",
      "resource": {
        "resourceType": "Observation",
        "id": "dacc52e1-86a6-4c6f-aab3-3a4b6ad30d07",
        "status": "final",
        "category": [
          {
            "coding": [
              {
                "system": "http://terminology.hl7.org/CodeSystem/observation-category",
                "code": "laboratory",
                "display": "Laboratory"
              }
            ],
            "text": "Laboratory"
          }
        ],
        "code": {
          "coding": [
            {
              "system": "http://loinc.org",
              "code": "16913-6",
              "display": "Glucose p fast Ur Ql"
            }
          ],
          "text": "Fasting Glucose"
        },
        "subject": {
          "reference": "Patient/f9477b11-af40-46f7-92c7-c7fbe84777b3"
        },
        "encounter": {
          "reference": "Encounter/fbf450eb-0210-4262-97e8-743d4412c277"
        },
        "effectiveDateTime": "2025-10-17T10:20:22.266768Z",
        "interpretation": [
          {
            "coding": [
              {
                "system": "http://terminology.hl7.org/CodeSystem/v3-ObservationInterpretation",
                "code": "A",
                "display": "Abnormal"
              }
            ]
          }
        ],
        "note": [
          {
            "text": "Definition: https://loinc.org/16913-6/"
          }
        ]
      },
      "request": {
        "method": "POST",
        "url": "Observation"
      }
    },
    {
      "fullUrl": "urn:uuid:6b3305c2-f0b7-42af-ba9f-dc43d4a4cea0",
      "resource": {
        "resourceType": "Observation",
        "id": "6b3305c2-f0b7-42af-ba9f-dc43d4a4cea0",
        "status": "final",
        "category": [
          {
            "coding": [
              {
                "system": "http://terminology.hl7.org/CodeSystem/observation-category",
                "code": "exam",
                "display": "Exam"
              }
            ],
            "text": "Exam"
          }
        ],
        "code": {
          "coding": [
            {
              "system": "http://snomed.info/sct",
              "code": "248423008",
              "display": "Deprivation hands and feet"
            }
          ],
          "text": "Enlargement of hands and feet"
        },
        "subject": {
          "reference": "Patient/f9477b11-af40-46f7-92c7-c7fbe84777b3"
        },
        "encounter": {
          "reference": "Encounter/fbf450eb-0210-4262-97e8-743d4412c277"
        },
        "effectivePeriod": {
          "start": "2025-10-17T10:20:24.115677Z"
        },
        "valueBoolean": true,
        "note": [
          {
            "text": "Definition: https://snomed.info/id/248423008"
          }
        ]
      },
      "request": {
        "method": "POST",
        "url": "Observation"
      }
    },
    {
      "fullUrl": "urn:uuid:d5970c4d-5957-49a6-86e7-d6f018287995",
      "resource": {
        "resourceType": "Observation",
        "id": "d5970c4d-5957-49a6-86e7-d6f018287995",
        "status": "final",
        "category": [
          {
            "coding": [
              {
                "system": "http://terminology.hl7.org/CodeSystem/observation-category",
                "code": "exam",
                "display": "Exam"
              }
            ],
            "text": "Exam"
          }
        ],
        "code": {
          "coding": [
            {
              "system": "http://snomed.info/sct"
            }
          ],
          "text": "Headaches"
        },
        "subject": {
          "reference": "Patient/f9477b11-af40-46f7-92c7-c7fbe84777b3"
        },
        "encounter": {
          "reference": "Encounter/fbf450eb-0210-4262-97e8-743d4412c277"
        },
        "effectivePeriod": {
          "start": "2025-10-17T10:20:25.632490Z"
        },
        "valueBoolean": true,
        "note": [
          {
            "text": "Definition: https://snomed.info/id/None"
          }
        ]
      },
      "request": {
        "method": "POST",
        "url": "Observation"
      }
    },
    {
      "fullUrl": "urn:uuid:0200302d-ada5-4e4e-8666-6ef0f8914ba7",
      "resource": {
        "resourceType": "Observation",
        "id": "0200302d-ada5-4e4e-8666-6ef0f8914ba7",
        "status": "final",
        "category": [
          {
            "coding": [
              {
                "system": "http://terminology.hl7.org/CodeSystem/observation-category",
                "code": "exam",
                "display": "Exam"
              }
            ],
            "text": "Exam"
          }
        ],
        "code": {
          "coding": [
            {
              "system": "http://snomed.info/sct",
              "code": "52613005",
              "display": "Excessive sweating"
            }
          ],
          "text": "Excessive sweating"
        },
        "subject": {
          "reference": "Patient/f9477b11-af40-46f7-92c7-c7fbe84777b3"
        },
        "encounter": {
          "reference": "Encounter/fbf450eb-0210-4262-97e8-743d4412c277"
        },
        "effectivePeriod": {
          "start": "2025-10-17T10:20:27.605635Z"
        },
        "valueBoolean": true,
        "note": [
          {
            "text": "Definition: https://snomed.info/id/52613005"
          }
        ]
      },
      "request": {
        "method": "POST",
        "url": "Observation"
      }
    },
    {
      "fullUrl": "urn:uuid:88460a58-a705-4e49-8eba-1f6537551cfc",
      "resource": {
        "resourceType": "Observation",
        "id": "88460a58-a705-4e49-8eba-1f6537551cfc",
        "status": "final",
        "category": [
          {
            "coding": [
              {
                "system": "http://terminology.hl7.org/CodeSystem/observation-category",
                "code": "exam",
                "display": "Exam"
              }
            ],
            "text": "Exam"
          }
        ],
        "code": {
          "coding": [
            {
              "system": "http://snomed.info/sct",
              "code": "302018006",
              "display": "Change in facial features"
            }
          ],
          "text": "Coarsening of facial features"
        },
        "subject": {
          "reference": "Patient/f9477b11-af40-46f7-92c7-c7fbe84777b3"
        },
        "encounter": {
          "reference": "Encounter/fbf450eb-0210-4262-97e8-743d4412c277"
        },
        "effectivePeriod": {
          "start": "2025-10-17T10:20:29.246357Z"
        },
        "valueBoolean": true,
        "note": [
          {
            "text": "Definition: https://snomed.info/id/302018006"
          }
        ]
      },
      "request": {
        "method": "POST",
        "url": "Observation"
      }
    },
    {
      "fullUrl": "urn:uuid:fce28ac0-b86a-428b-ba22-34af1c50131f",
      "resource": {
        "resourceType": "Observation",
        "id": "fce28ac0-b86a-428b-ba22-34af1c50131f",
        "status": "final",
        "category": [
          {
            "coding": [
              {
                "system": "http://terminology.hl7.org/CodeSystem/observation-category",
                "code": "exam",
                "display": "Exam"
              }
            ],
            "text": "Exam"
          }
        ],
        "code": {
          "coding": [
            {
              "system": "http://snomed.info/sct",
              "code": "345121001",
              "display": "Heteronymous bilateral visual field defects"
            }
          ],
          "text": "Visual field defects"
        },
        "subject": {
          "reference": "Patient/f9477b11-af40-46f7-92c7-c7fbe84777b3"
        },
        "encounter": {
          "reference": "Encounter/fbf450eb-0210-4262-97e8-743d4412c277"
        },
        "effectivePeriod": {
          "start": "2025-10-17T10:20:30.873999Z"
        },
        "valueBoolean": false,
        "note": [
          {
            "text": "Definition: https://snomed.info/id/345121001"
          }
        ]
      },
      "request": {
        "method": "POST",
        "url": "Observation"
      }
    },
    {
      "fullUrl": "urn:uuid:4d739ebe-203d-4b80-a4cf-9b2d15f58302",
      "resource": {
        "resourceType": "Observation",
        "id": "4d739ebe-203d-4b80-a4cf-9b2d15f58302",
        "status": "final",
        "category": [
          {
            "coding": [
              {
                "system": "http://terminology.hl7.org/CodeSystem/observation-category",
                "code": "vital-signs",
                "display": "Vital Signs"
              }
            ],
            "text": "Vital Signs"
          }
        ],
        "code": {
          "coding": [
            {
              "system": "http://loinc.org",
              "code": "11753-1",
              "display": "EFW from AC+HC"
            }
          ],
          "text": "head_circumference"
        },
        "subject": {
          "reference": "Patient/f9477b11-af40-46f7-92c7-c7fbe84777b3"
        },
        "encounter": {
          "reference": "Encounter/fbf450eb-0210-4262-97e8-743d4412c277"
        },
        "effectiveDateTime": "2025-10-17T10:20:31.073852Z",
        "interpretation": [
          {
            "coding": [
              {
                "system": "http://terminology.hl7.org/CodeSystem/v3-ObservationInterpretation",
                "code": "H",
                "display": "High"
              }
            ],
            "text": "High"
          }
        ]
      },
      "request": {
        "method": "POST",
        "url": "Observation"
      }
    },
    {
      "fullUrl": "urn:uuid:9712dc93-a1eb-4a5e-b62d-1c3db32de863",
      "resource": {
        "resourceType": "Observation",
        "id": "9712dc93-a1eb-4a5e-b62d-1c3db32de863",
        "status": "final",
        "category": [
          {
            "coding": [
              {
                "system": "http://terminology.hl7.org/CodeSystem/observation-category",
                "code": "vital-signs",
                "display": "Vital Signs"
              }
            ],
            "text": "Vital Signs"
          }
        ],
        "code": {
          "coding": [
            {
              "system": "http://loinc.org",
              "code": "8337-8",
              "display": "Bdy weight special circumstances"
            }
          ],
          "text": "weight"
        },
        "subject": {
          "reference": "Patient/f9477b11-af40-46f7-92c7-c7fbe84777b3"
        },
        "encounter": {
          "reference": "Encounter/fbf450eb-0210-4262-97e8-743d4412c277"
        },
        "effectiveDateTime": "2025-10-17T10:20:31.279087Z",
        "interpretation": [
          {
            "coding": [
              {
                "system": "http://terminology.hl7.org/CodeSystem/v3-ObservationInterpretation",
                "code": "H",
                "display": "High"
              }
            ],
            "text": "High"
          }
        ]
      },
      "request": {
        "method": "POST",
        "url": "Observation"
      }
    },
    {
      "fullUrl": "urn:uuid:f69ba752-825c-4f5e-8b99-8a125c9bb823",
      "resource": {
        "resourceType": "List",
        "id": "f69ba752-825c-4f5e-8b99-8a125c9bb823",
        "contained": [
          {
            "resourceType": "FamilyMemberHistory",
            "id": "fmh-2",
            "status": "completed",
            "patient": {
              "reference": "Patient/f9477b11-af40-46f7-92c7-c7fbe84777b3"
            },
            "relationship": {
              "coding": [
                {
                  "system": "http://snomed.info/sct",
                  "code": "72705000",
                  "display": "Mother"
                }
              ]
            },
            "deceasedBoolean": false,
            "condition": [
              {
                "code": {
                  "coding": [
                    {
                      "system": "http://snomed.info/sct",
                      "code": "38341003",
                      "display": "Hypertensive disorder"
                    }
                  ]
                }
              }
            ]
          }
        ],
        "status": "current",
        "mode": "snapshot",
        "code": {
          "coding": [
            {
              "system": "http://loinc.org",
              "code": "8670-2",
              "display": "History of family member diseases"
            }
          ]
        },
        "subject": [
          {
            "reference": "Patient/f9477b11-af40-46f7-92c7-c7fbe84777b3"
          }
        ],
        "entry": [
          {
            "item": {
              "reference": "#fmh-2"
            }
          }
        ]
      },
      "request": {
        "method": "POST",
        "url": "FamilyMemberHistory"
      }
    },
    {
      "fullUrl": "urn:uuid:65a9e435-dc5c-4839-ae72-1018f99089cc",
      "resource": {
        "resourceType": "MedicationStatement",
        "id": "65a9e435-dc5c-4839-ae72-1018f99089cc",
        "status": "recorded",
        "medication": {
          "concept": {
            "coding": [
              {
                "system": "http://snomed.info/sct",
                "code": "372567009",
                "display": "Metformin"
              }
            ],
            "text": "Metformin"
          }
        },
        "subject": {
          "reference": "Patient/f9477b11-af40-46f7-92c7-c7fbe84777b3"
        },
        "encounter": {
          "reference": "Encounter/fbf450eb-0210-4262-97e8-743d4412c277"
        },
        "effectiveDateTime": "2025-10-17T10:20:37.531514Z",
        "informationSource": [
          {
            "reference": "Patient/f9477b11-af40-46f7-92c7-c7fbe84777b3"
          }
        ]
      },
      "request": {
        "method": "POST",
        "url": "MedicationStatement"
      }
    }
  ]
}