{
  "resourceType": "Bundle",
  "type": "transaction",
  "entry": [
    {
      "fullUrl": "urn:uuid:6863c123-8338-4afd-827d-1978a99ae774",
      "resource": {
        "resourceType": "Patient",
        "id": "6863c123-8338-4afd-827d-1978a99ae774",
        "name": [
          {
            "family": "Vasquez",
            "given": [
              "Elena"
            ]
          }
        ],
        "gender": "female",
        "birthDate": "1987-01-01",
        "address": [
          {}
        ]
      },
      "request": {
        "method": "POST",
        "url": "Patient"
      }
    },
    {
      "fullUrl": "urn:uuid:cbe66669-3d17-4e1a-a70a-a764ec85fdb6",
      "resource": {
        "resourceType": "Encounter",
        "id": "cbe66669-3d17-4e1a-a70a-a764ec85fdb6",
        "identifier": [
          {
            "use": "temp",
            "value": "Encounter_Elena Vasquez_20251021093110"
          }
        ],
        "status": "completed",
        "priority": {
          "coding": [
            {
              "system": "http://snomed.info/sct",
              "code": "17621005",
              "display": "Normal"
            }
          ]
        },
        "type": [
          {
            "coding": [
              {
                "system": "http://snomed.info/sct",
                "code": "11429006",
                "display": "Consultation"
              }
            ]
          }
        ],
        "subject": {
          "reference": "Patient/6863c123-8338-4afd-827d-1978a99ae774",
          "display": "Elena Vasquez"
        },
        "reason": [
          {
            "value": [
              {
                "concept": {
                  "text": "gradual enlargement of hands and feet, joint pains"
                }
              }
            ]
          }
        ]
      },
      "request": {
        "method": "POST",
        "url": "Encounter"
      }
    },
    {
      "fullUrl": "urn:uuid:8dc4c9c4-6e46-445b-a036-41917c0e8f9e",
      "resource": {
        "resourceType": "Observation",
        "id": "8dc4c9c4-6e46-445b-a036-41917c0e8f9e",
        "status": "final",
        "category": [
          {
            "coding": [
              {
                "system": "http://terminology.hl7.org/CodeSystem/observation-category",
                "code": "laboratory",
                "display": "Laboratory"
              }
            ],
            "text": "Laboratory"
          }
        ],
        "code": {
          "coding": [
            {
              "system": "http://loinc.org",
              "code": "74790-7",
              "display": "Glucose challenge panel"
            }
          ],
          "text": "Glucose"
        },
        "subject": {
          "reference": "Patient/6863c123-8338-4afd-827d-1978a99ae774"
        },
        "encounter": {
          "reference": "Encounter/cbe66669-3d17-4e1a-a70a-a764ec85fdb6"
        },
        "effectiveDateTime": "2025-10-16",
        "valueQuantity": {
          "value": 92.0,
          "unit": "mg/dL",
          "system": "http://unitsofmeasure.org",
          "code": "mg/dL"
        },
        "interpretation": [
          {
            "coding": [
              {
                "system": "http://terminology.hl7.org/CodeSystem/v3-ObservationInterpretation",
                "code": "N",
                "display": "Normal"
              }
            ]
          }
        ],
        "note": [
          {
            "text": "Definition: https://loinc.org/74790-7/"
          }
        ]
      },
      "request": {
        "method": "POST",
        "url": "Observation"
      }
    },
    {
      "fullUrl": "urn:uuid:48a1635f-9b4f-4af3-807a-950ac4ea9cce",
      "resource": {
        "resourceType": "Observation",
        "id": "48a1635f-9b4f-4af3-807a-950ac4ea9cce",
        "status": "final",
        "category": [
          {
            "coding": [
              {
                "system": "http://terminology.hl7.org/CodeSystem/observation-category",
                "code": "laboratory",
                "display": "Laboratory"
              }
            ],
            "text": "Laboratory"
          }
        ],
        "code": {
          "coding": [
            {
              "system": "http://loinc.org",
              "code": "60012-2",
              "display": "IGF-I sp1 p chal SerPl-mCnc"
            }
          ],
          "text": "Insulin-like growth factor 1 (IGF-1)"
        },
        "subject": {
          "reference": "Patient/6863c123-8338-4afd-827d-1978a99ae774"
        },
        "encounter": {
          "reference": "Encounter/cbe66669-3d17-4e1a-a70a-a764ec85fdb6"
        },
        "effectiveDateTime": "2025-10-16",
        "valueQuantity": {
          "value": 420.0,
          "unit": "ng/mL",
          "system": "http://unitsofmeasure.org",
          "code": "ng/mL"
        },
        "interpretation": [
          {
            "coding": [
              {
                "system": "http://terminology.hl7.org/CodeSystem/v3-ObservationInterpretation",
                "code": "H",
                "display": "High"
              }
            ]
          }
        ],
        "note": [
          {
            "text": "Definition: https://loinc.org/60012-2/"
          }
        ]
      },
      "request": {
        "method": "POST",
        "url": "Observation"
      }
    },
    {
      "fullUrl": "urn:uuid:e3272b3a-b18d-45d5-8e45-a553b1f132e2",
      "resource": {
        "resourceType": "Observation",
        "id": "e3272b3a-b18d-45d5-8e45-a553b1f132e2",
        "status": "final",
        "category": [
          {
            "coding": [
              {
                "system": "http://terminology.hl7.org/CodeSystem/observation-category",
                "code": "exam",
                "display": "Exam"
              }
            ],
            "text": "Exam"
          }
        ],
        "code": {
          "coding": [
            {
              "system": "http://snomed.info/sct",
              "code": "57676002",
              "display": "Joint pain"
            }
          ],
          "text": "Joint pain"
        },
        "subject": {
          "reference": "Patient/6863c123-8338-4afd-827d-1978a99ae774"
        },
        "encounter": {
          "reference": "Encounter/cbe66669-3d17-4e1a-a70a-a764ec85fdb6"
        },
        "effectivePeriod": {
          "start": "2025-10-16"
        },
        "valueBoolean": true,
        "note": [
          {
            "text": "Definition: https://snomed.info/id/57676002"
          }
        ]
      },
      "request": {
        "method": "POST",
        "url": "Observation"
      }
    },
    {
      "fullUrl": "urn:uuid:e1428b39-6575-41a1-b62d-2300080a76ff",
      "resource": {
        "resourceType": "Observation",
        "id": "e1428b39-6575-41a1-b62d-2300080a76ff",
        "status": "final",
        "category": [
          {
            "coding": [
              {
                "system": "http://terminology.hl7.org/CodeSystem/observation-category",
                "code": "exam",
                "display": "Exam"
              }
            ],
            "text": "Exam"
          }
        ],
        "code": {
          "coding": [
            {
              "system": "http://snomed.info/sct",
              "code": "415690000",
              "display": "Sweating"
            }
          ],
          "text": "Sweating"
        },
        "subject": {
          "reference": "Patient/6863c123-8338-4afd-827d-1978a99ae774"
        },
        "encounter": {
          "reference": "Encounter/cbe66669-3d17-4e1a-a70a-a764ec85fdb6"
        },
        "effectivePeriod": {
          "start": "2025-10-16"
        },
        "valueBoolean": true,
        "note": [
          {
            "text": "Definition: https://snomed.info/id/415690000"
          }
        ]
      },
      "request": {
        "method": "POST",
        "url": "Observation"
      }
    },
    {
      "fullUrl": "urn:uuid:91cbce1a-bfac-447f-bd8e-97b01ab483df",
      "resource": {
        "resourceType": "Observation",
        "id": "91cbce1a-bfac-447f-bd8e-97b01ab483df",
        "status": "final",
        "category": [
          {
            "coding": [
              {
                "system": "http://terminology.hl7.org/CodeSystem/observation-category",
                "code": "exam",
                "display": "Exam"
              }
            ],
            "text": "Exam"
          }
        ],
        "code": {
          "coding": [
            {
              "system": "http://snomed.info/sct",
              "code": "84229001",
              "display": "Fatigue"
            }
          ],
          "text": "Fatigue"
        },
        "subject": {
          "reference": "Patient/6863c123-8338-4afd-827d-1978a99ae774"
        },
        "encounter": {
          "reference": "Encounter/cbe66669-3d17-4e1a-a70a-a764ec85fdb6"
        },
        "effectivePeriod": {
          "start": "2025-10-16"
        },
        "valueBoolean": true,
        "note": [
          {
            "text": "Definition: https://snomed.info/id/84229001"
          }
        ]
      },
      "request": {
        "method": "POST",
        "url": "Observation"
      }
    },
    {
      "fullUrl": "urn:uuid:287eebf0-68a5-4d5d-95be-bed3a7c9dba0",
      "resource": {
        "resourceType": "Observation",
        "id": "287eebf0-68a5-4d5d-95be-bed3a7c9dba0",
        "status": "final",
        "category": [
          {
            "coding": [
              {
                "system": "http://terminology.hl7.org/CodeSystem/observation-category",
                "code": "vital-signs",
                "display": "Vital Signs"
              }
            ],
            "text": "Vital Signs"
          }
        ],
        "code": {
          "coding": [
            {
              "system": "http://loinc.org",
              "code": "18684-1",
              "display": "Blood pressure"
            }
          ],
          "text": "Blood pressure"
        },
        "subject": {
          "reference": "Patient/6863c123-8338-4afd-827d-1978a99ae774"
        },
        "encounter": {
          "reference": "Encounter/cbe66669-3d17-4e1a-a70a-a764ec85fdb6"
        },
        "effectiveDateTime": "2025-10-16",
        "valueQuantity": {
          "value": 128.0,
          "unit": "mmHg",
          "system": "http://unitsofmeasure.org",
          "code": "mmHg"
        },
        "interpretation": [
          {
            "coding": [
              {
                "system": "http://terminology.hl7.org/CodeSystem/v3-ObservationInterpretation",
                "code": "N",
                "display": "Normal"
              }
            ],
            "text": "Normal"
          }
        ]
      },
      "request": {
        "method": "POST",
        "url": "Observation"
      }
    },
    {
      "fullUrl": "urn:uuid:d1fb83c5-12ee-40db-8eaf-49db7fcf3194",
      "resource": {
        "resourceType": "Observation",
        "id": "d1fb83c5-12ee-40db-8eaf-49db7fcf3194",
        "status": "final",
        "category": [
          {
            "coding": [
              {
                "system": "http://terminology.hl7.org/CodeSystem/observation-category",
                "code": "vital-signs",
                "display": "Vital Signs"
              }
            ],
            "text": "Vital Signs"
          }
        ],
        "code": {
          "coding": [
            {
              "system": "http://loinc.org",
              "code": "62733-1",
              "display": "PhenX - respiratory - pulse oximetry - rest protocol 091101"
            }
          ],
          "text": "Pulse"
        },
        "subject": {
          "reference": "Patient/6863c123-8338-4afd-827d-1978a99ae774"
        },
        "encounter": {
          "reference": "Encounter/cbe66669-3d17-4e1a-a70a-a764ec85fdb6"
        },
        "effectiveDateTime": "2025-10-16",
        "valueQuantity": {
          "value": 70.0,
          "unit": "bpm",
          "system": "http://unitsofmeasure.org",
          "code": "bpm"
        },
        "interpretation": [
          {
            "coding": [
              {
                "system": "http://terminology.hl7.org/CodeSystem/v3-ObservationInterpretation",
                "code": "N",
                "display": "Normal"
              }
            ],
            "text": "Normal"
          }
        ]
      },
      "request": {
        "method": "POST",
        "url": "Observation"
      }
    },
    {
      "fullUrl": "urn:uuid:fdff1937-bd32-4775-9050-7e49e1cf44d3",
      "resource": {
        "resourceType": "Observation",
        "id": "fdff1937-bd32-4775-9050-7e49e1cf44d3",
        "status": "final",
        "category": [
          {
            "coding": [
              {
                "system": "http://terminology.hl7.org/CodeSystem/observation-category",
                "code": "vital-signs",
                "display": "Vital Signs"
              }
            ],
            "text": "Vital Signs"
          }
        ],
        "code": {
          "coding": [
            {
              "system": "http://loinc.org",
              "code": "107102-6",
              "display": "BMI formula"
            }
          ],
          "text": "BMI"
        },
        "subject": {
          "reference": "Patient/6863c123-8338-4afd-827d-1978a99ae774"
        },
        "encounter": {
          "reference": "Encounter/cbe66669-3d17-4e1a-a70a-a764ec85fdb6"
        },
        "effectiveDateTime": "2025-10-16",
        "valueQuantity": {
          "value": 26.5,
          "unit": "kg/m²",
          "system": "http://unitsofmeasure.org",
          "code": "kg/m²"
        },
        "interpretation": [
          {
            "coding": [
              {
                "system": "http://terminology.hl7.org/CodeSystem/v3-ObservationInterpretation",
                "code": "A",
                "display": "Abnormal"
              }
            ],
            "text": "Abnormal"
          }
        ]
      },
      "request": {
        "method": "POST",
        "url": "Observation"
      }
    },
    {
      "fullUrl": "urn:uuid:45474db0-a473-4905-a0f1-faa59622df4d",
      "resource": {
        "resourceType": "MedicationStatement",
        "id": "45474db0-a473-4905-a0f1-faa59622df4d",
        "status": "recorded",
        "medication": {
          "concept": {
            "coding": [
              {
                "system": "http://snomed.info/sct",
                "code": "387207008",
                "display": "Ibuprofen"
              }
            ],
            "text": "Ibuprofen"
          }
        },
        "subject": {
          "reference": "Patient/6863c123-8338-4afd-827d-1978a99ae774"
        },
        "encounter": {
          "reference": "Encounter/cbe66669-3d17-4e1a-a70a-a764ec85fdb6"
        },
        "effectiveDateTime": "2025-10-16",
        "informationSource": [
          {
            "reference": "Patient/6863c123-8338-4afd-827d-1978a99ae774"
          }
        ],
        "dosage": [
          {
            "text": "400 mg as needed"
          }
        ]
      },
      "request": {
        "method": "POST",
        "url": "MedicationStatement"
      }
    },
    {
      "fullUrl": "urn:uuid:3cb205f8-acc7-45fd-8ca9-1b776361f304",
      "resource": {
        "resourceType": "Encounter",
        "id": "3cb205f8-acc7-45fd-8ca9-1b776361f304",
        "identifier": [
          {
            "use": "temp",
            "value": "Encounter_Elena Vasquez_20251021093120"
          }
        ],
        "status": "completed",
        "priority": {
          "coding": [
            {
              "system": "http://snomed.info/sct",
              "code": "17621005",
              "display": "Normal"
            }
          ]
        },
        "type": [
          {
            "coding": [
              {
                "system": "http://snomed.info/sct",
                "code": "11429006",
                "display": "Consultation"
              }
            ]
          }
        ],
        "subject": {
          "reference": "Patient/6863c123-8338-4afd-827d-1978a99ae774",
          "display": "Elena Vasquez"
        },
        "reason": [
          {
            "value": [
              {
                "concept": {
                  "text": "routine check-up"
                }
              }
            ]
          }
        ]
      },
      "request": {
        "method": "POST",
        "url": "Encounter"
      }
    },
    {
      "fullUrl": "urn:uuid:794d4017-78b8-4273-b896-4942f7ec93bc",
      "resource": {
        "resourceType": "Observation",
        "id": "794d4017-78b8-4273-b896-4942f7ec93bc",
        "status": "final",
        "category": [
          {
            "coding": [
              {
                "system": "http://terminology.hl7.org/CodeSystem/observation-category",
                "code": "vital-signs",
                "display": "Vital Signs"
              }
            ],
            "text": "Vital Signs"
          }
        ],
        "code": {
          "coding": [
            {
              "system": "http://loinc.org",
              "code": "18684-1",
              "display": "Blood pressure"
            }
          ],
          "text": "Blood pressure"
        },
        "subject": {
          "reference": "Patient/6863c123-8338-4afd-827d-1978a99ae774"
        },
        "encounter": {
          "reference": "Encounter/3cb205f8-acc7-45fd-8ca9-1b776361f304"
        },
        "effectiveDateTime": "2025-04-16",
        "valueQuantity": {
          "value": 120.0,
          "unit": "mmHg",
          "system": "http://unitsofmeasure.org",
          "code": "mmHg"
        },
        "interpretation": [
          {
            "coding": [
              {
                "system": "http://terminology.hl7.org/CodeSystem/v3-ObservationInterpretation",
                "code": "N",
                "display": "Normal"
              }
            ],
            "text": "Normal"
          }
        ]
      },
      "request": {
        "method": "POST",
        "url": "Observation"
      }
    },
    {
      "fullUrl": "urn:uuid:9a103497-11f7-4d0d-908b-a23769e50743",
      "resource": {
        "resourceType": "List",
        "id": "9a103497-11f7-4d0d-908b-a23769e50743",
        "contained": [
          {
            "resourceType": "FamilyMemberHistory",
            "id": "fmh-2",
            "status": "completed",
            "patient": {
              "reference": "Patient/6863c123-8338-4afd-827d-1978a99ae774"
            },
            "relationship": {
              "coding": [
                {
                  "system": "http://snomed.info/sct",
                  "code": "72705000",
                  "display": "Mother"
                }
              ]
            },
            "deceasedBoolean": false,
            "condition": []
          }
        ],
        "status": "current",
        "mode": "snapshot",
        "code": {
          "coding": [
            {
              "system": "http://loinc.org",
              "code": "8670-2",
              "display": "History of family member diseases"
            }
          ]
        },
        "subject": [
          {
            "reference": "Patient/6863c123-8338-4afd-827d-1978a99ae774"
          }
        ],
        "note": [
          {
            "text": "Both parents are alive and healthy, with no known history of similar complaints."
          }
        ],
        "entry": [
          {
            "item": {
              "reference": "#fmh-2"
            }
          }
        ]
      },
      "request": {
        "method": "POST",
        "url": "FamilyMemberHistory"
      }
    }
  ]
}