{
  "resourceType": "Bundle",
  "type": "transaction",
  "entry": [
    {
      "fullUrl": "urn:uuid:00beaa5a-90b1-4e5e-ad5c-4e518ac6d409",
      "resource": {
        "resourceType": "Patient",
        "id": "00beaa5a-90b1-4e5e-ad5c-4e518ac6d409",
        "name": [
          {
            "family": "Ivanova",
            "given": [
              "Sofia"
            ]
          }
        ],
        "gender": "female",
        "birthDate": "1991-07-04",
        "address": [
          {}
        ]
      },
      "request": {
        "method": "POST",
        "url": "Patient"
      }
    },
    {
      "fullUrl": "urn:uuid:7f5c4c93-f771-4549-8402-cd7b2718264a",
      "resource": {
        "resourceType": "Encounter",
        "id": "7f5c4c93-f771-4549-8402-cd7b2718264a",
        "identifier": [
          {
            "use": "temp",
            "value": "Encounter_Sofia Ivanova_20251020132526"
          }
        ],
        "status": "completed",
        "priority": {
          "coding": [
            {
              "system": "http://snomed.info/sct",
              "code": "17621005",
              "display": "Normal"
            }
          ]
        },
        "type": [
          {
            "coding": [
              {
                "system": "http://snomed.info/sct",
                "code": "11429006",
                "display": "Consultation"
              }
            ]
          }
        ],
        "subject": {
          "reference": "Patient/00beaa5a-90b1-4e5e-ad5c-4e518ac6d409",
          "display": "Sofia Ivanova"
        },
        "reason": [
          {
            "value": [
              {
                "concept": {
                  "text": "subtle facial puffiness and mild fatigue"
                }
              }
            ]
          }
        ]
      },
      "request": {
        "method": "POST",
        "url": "Encounter"
      }
    },
    {
      "fullUrl": "urn:uuid:3c306666-03a2-41f7-bfe2-59f51570e9d3",
      "resource": {
        "resourceType": "Observation",
        "id": "3c306666-03a2-41f7-bfe2-59f51570e9d3",
        "status": "final",
        "category": [
          {
            "coding": [
              {
                "system": "http://terminology.hl7.org/CodeSystem/observation-category",
                "code": "laboratory",
                "display": "Laboratory"
              }
            ],
            "text": "Laboratory"
          }
        ],
        "code": {
          "coding": [
            {
              "system": "http://loinc.org",
              "code": "42788-0",
              "display": "IGF-IR Ag Tiss Ql ImStn"
            }
          ],
          "text": "IGF-1"
        },
        "subject": {
          "reference": "Patient/00beaa5a-90b1-4e5e-ad5c-4e518ac6d409"
        },
        "encounter": {
          "reference": "Encounter/7f5c4c93-f771-4549-8402-cd7b2718264a"
        },
        "effectiveDateTime": "2025-10-16",
        "interpretation": [
          {
            "coding": [
              {
                "system": "http://terminology.hl7.org/CodeSystem/v3-ObservationInterpretation",
                "code": "H",
                "display": "High"
              }
            ]
          }
        ],
        "note": [
          {
            "text": "Definition: https://loinc.org/42788-0/"
          }
        ]
      },
      "request": {
        "method": "POST",
        "url": "Observation"
      }
    },
    {
      "fullUrl": "urn:uuid:1bbe48dd-2eb9-4738-afe6-1b724242f8e4",
      "resource": {
        "resourceType": "Observation",
        "id": "1bbe48dd-2eb9-4738-afe6-1b724242f8e4",
        "status": "final",
        "category": [
          {
            "coding": [
              {
                "system": "http://terminology.hl7.org/CodeSystem/observation-category",
                "code": "laboratory",
                "display": "Laboratory"
              }
            ],
            "text": "Laboratory"
          }
        ],
        "code": {
          "coding": [
            {
              "system": "http://loinc.org",
              "code": "62856-0",
              "display": "PhenX - oral glucose tolerance test protocol 141001"
            }
          ],
          "text": "Oral Glucose Tolerance Test"
        },
        "subject": {
          "reference": "Patient/00beaa5a-90b1-4e5e-ad5c-4e518ac6d409"
        },
        "encounter": {
          "reference": "Encounter/7f5c4c93-f771-4549-8402-cd7b2718264a"
        },
        "effectiveDateTime": "2025-10-16",
        "interpretation": [
          {
            "coding": [
              {
                "system": "http://terminology.hl7.org/CodeSystem/v3-ObservationInterpretation",
                "code": "A",
                "display": "Abnormal"
              }
            ]
          }
        ],
        "note": [
          {
            "text": "Definition: https://loinc.org/62856-0/"
          }
        ]
      },
      "request": {
        "method": "POST",
        "url": "Observation"
      }
    },
    {
      "fullUrl": "urn:uuid:f9f4b66f-bba9-44cb-8d05-2c32454d8fda",
      "resource": {
        "resourceType": "Observation",
        "id": "f9f4b66f-bba9-44cb-8d05-2c32454d8fda",
        "status": "final",
        "category": [
          {
            "coding": [
              {
                "system": "http://terminology.hl7.org/CodeSystem/observation-category",
                "code": "exam",
                "display": "Exam"
              }
            ],
            "text": "Exam"
          }
        ],
        "code": {
          "coding": [
            {
              "system": "http://snomed.info/sct",
              "code": "71718006",
              "display": "Puffiness of skin"
            }
          ],
          "text": "Facial puffiness"
        },
        "subject": {
          "reference": "Patient/00beaa5a-90b1-4e5e-ad5c-4e518ac6d409"
        },
        "encounter": {
          "reference": "Encounter/7f5c4c93-f771-4549-8402-cd7b2718264a"
        },
        "effectivePeriod": {
          "start": "2025-10-16"
        },
        "valueBoolean": true,
        "note": [
          {
            "text": "Definition: https://snomed.info/id/71718006"
          }
        ]
      },
      "request": {
        "method": "POST",
        "url": "Observation"
      }
    },
    {
      "fullUrl": "urn:uuid:f49f6fe5-5db5-449f-aee1-5c627180874a",
      "resource": {
        "resourceType": "Observation",
        "id": "f49f6fe5-5db5-449f-aee1-5c627180874a",
        "status": "final",
        "category": [
          {
            "coding": [
              {
                "system": "http://terminology.hl7.org/CodeSystem/observation-category",
                "code": "exam",
                "display": "Exam"
              }
            ],
            "text": "Exam"
          }
        ],
        "code": {
          "coding": [
            {
              "system": "http://snomed.info/sct",
              "code": "84229001",
              "display": "Fatigue"
            }
          ],
          "text": "Fatigue"
        },
        "subject": {
          "reference": "Patient/00beaa5a-90b1-4e5e-ad5c-4e518ac6d409"
        },
        "encounter": {
          "reference": "Encounter/7f5c4c93-f771-4549-8402-cd7b2718264a"
        },
        "effectivePeriod": {
          "start": "2025-10-16"
        },
        "valueBoolean": true,
        "note": [
          {
            "text": "Definition: https://snomed.info/id/84229001"
          }
        ]
      },
      "request": {
        "method": "POST",
        "url": "Observation"
      }
    }
  ]
}