{
  "resourceType": "Bundle",
  "type": "transaction",
  "entry": [
    {
      "fullUrl": "urn:uuid:e4852d75-5bb7-4cd8-ab21-227b3b67398d",
      "resource": {
        "resourceType": "Patient",
        "id": "e4852d75-5bb7-4cd8-ab21-227b3b67398d",
        "name": [
          {
            "family": "Petrov",
            "given": [
              "Andrei"
            ]
          }
        ],
        "gender": "male",
        "birthDate": "1989-01-01",
        "address": [
          {}
        ]
      },
      "request": {
        "method": "POST",
        "url": "Patient"
      }
    },
    {
      "fullUrl": "urn:uuid:932a137f-cd9e-4158-98b5-a7406b485c7c",
      "resource": {
        "resourceType": "Encounter",
        "id": "932a137f-cd9e-4158-98b5-a7406b485c7c",
        "identifier": [
          {
            "use": "temp",
            "value": "Encounter_Andrei Petrov_20251020132507"
          }
        ],
        "status": "completed",
        "priority": {
          "coding": [
            {
              "system": "http://snomed.info/sct",
              "code": "17621005",
              "display": "Normal"
            }
          ]
        },
        "type": [
          {
            "coding": [
              {
                "system": "http://snomed.info/sct",
                "code": "11429006",
                "display": "Consultation"
              }
            ]
          }
        ],
        "subject": {
          "reference": "Patient/e4852d75-5bb7-4cd8-ab21-227b3b67398d",
          "display": "Andrei Petrov"
        },
        "reason": [
          {
            "value": [
              {
                "concept": {
                  "text": "progressive enlargement of hands and feet, headaches, and excessive sweating"
                }
              }
            ]
          }
        ]
      },
      "request": {
        "method": "POST",
        "url": "Encounter"
      }
    },
    {
      "fullUrl": "urn:uuid:667afa9c-a314-49fd-9967-4a9e2ac8a640",
      "resource": {
        "resourceType": "Observation",
        "id": "667afa9c-a314-49fd-9967-4a9e2ac8a640",
        "status": "final",
        "category": [
          {
            "coding": [
              {
                "system": "http://terminology.hl7.org/CodeSystem/observation-category",
                "code": "laboratory",
                "display": "Laboratory"
              }
            ],
            "text": "Laboratory"
          }
        ],
        "code": {
          "coding": [
            {
              "system": "http://loinc.org",
              "code": "42788-0",
              "display": "IGF-IR Ag Tiss Ql ImStn"
            }
          ],
          "text": "IGF-1"
        },
        "subject": {
          "reference": "Patient/e4852d75-5bb7-4cd8-ab21-227b3b67398d"
        },
        "encounter": {
          "reference": "Encounter/932a137f-cd9e-4158-98b5-a7406b485c7c"
        },
        "effectiveDateTime": "2025-10-16",
        "interpretation": [
          {
            "coding": [
              {
                "system": "http://terminology.hl7.org/CodeSystem/v3-ObservationInterpretation",
                "code": "H",
                "display": "High"
              }
            ]
          }
        ],
        "note": [
          {
            "text": "Definition: https://loinc.org/42788-0/"
          }
        ]
      },
      "request": {
        "method": "POST",
        "url": "Observation"
      }
    },
    {
      "fullUrl": "urn:uuid:8ffc7252-5943-4740-9427-1217b1aa5933",
      "resource": {
        "resourceType": "Observation",
        "id": "8ffc7252-5943-4740-9427-1217b1aa5933",
        "status": "final",
        "category": [
          {
            "coding": [
              {
                "system": "http://terminology.hl7.org/CodeSystem/observation-category",
                "code": "laboratory",
                "display": "Laboratory"
              }
            ],
            "text": "Laboratory"
          }
        ],
        "code": {
          "coding": [
            {
              "system": "http://loinc.org",
              "code": "16913-6",
              "display": "Glucose p fast Ur Ql"
            }
          ],
          "text": "Fasting Glucose"
        },
        "subject": {
          "reference": "Patient/e4852d75-5bb7-4cd8-ab21-227b3b67398d"
        },
        "encounter": {
          "reference": "Encounter/932a137f-cd9e-4158-98b5-a7406b485c7c"
        },
        "effectiveDateTime": "2025-10-16",
        "interpretation": [
          {
            "coding": [
              {
                "system": "http://terminology.hl7.org/CodeSystem/v3-ObservationInterpretation",
                "code": "A",
                "display": "Abnormal"
              }
            ]
          }
        ],
        "note": [
          {
            "text": "Definition: https://loinc.org/16913-6/"
          }
        ]
      },
      "request": {
        "method": "POST",
        "url": "Observation"
      }
    },
    {
      "fullUrl": "urn:uuid:2a431b6e-13d2-439e-8a9c-1f2aa75f9ed6",
      "resource": {
        "resourceType": "Observation",
        "id": "2a431b6e-13d2-439e-8a9c-1f2aa75f9ed6",
        "status": "final",
        "category": [
          {
            "coding": [
              {
                "system": "http://terminology.hl7.org/CodeSystem/observation-category",
                "code": "exam",
                "display": "Exam"
              }
            ],
            "text": "Exam"
          }
        ],
        "code": {
          "coding": [
            {
              "system": "http://snomed.info/sct",
              "code": "248423008",
              "display": "Deprivation hands and feet"
            }
          ],
          "text": "Enlargement of hands and feet"
        },
        "subject": {
          "reference": "Patient/e4852d75-5bb7-4cd8-ab21-227b3b67398d"
        },
        "encounter": {
          "reference": "Encounter/932a137f-cd9e-4158-98b5-a7406b485c7c"
        },
        "effectivePeriod": {
          "start": "2025-10-16"
        },
        "valueBoolean": true,
        "note": [
          {
            "text": "Definition: https://snomed.info/id/248423008"
          }
        ]
      },
      "request": {
        "method": "POST",
        "url": "Observation"
      }
    },
    {
      "fullUrl": "urn:uuid:bf250bde-8d99-4144-9acd-6ed44cc02c31",
      "resource": {
        "resourceType": "Observation",
        "id": "bf250bde-8d99-4144-9acd-6ed44cc02c31",
        "status": "final",
        "category": [
          {
            "coding": [
              {
                "system": "http://terminology.hl7.org/CodeSystem/observation-category",
                "code": "exam",
                "display": "Exam"
              }
            ],
            "text": "Exam"
          }
        ],
        "code": {
          "coding": [
            {
              "system": "http://snomed.info/sct"
            }
          ],
          "text": "Headaches"
        },
        "subject": {
          "reference": "Patient/e4852d75-5bb7-4cd8-ab21-227b3b67398d"
        },
        "encounter": {
          "reference": "Encounter/932a137f-cd9e-4158-98b5-a7406b485c7c"
        },
        "effectivePeriod": {
          "start": "2025-10-16"
        },
        "valueBoolean": true,
        "note": [
          {
            "text": "Definition: https://snomed.info/id/None"
          }
        ]
      },
      "request": {
        "method": "POST",
        "url": "Observation"
      }
    },
    {
      "fullUrl": "urn:uuid:254dd744-ecaa-47e4-9cc3-2e4e65369995",
      "resource": {
        "resourceType": "Observation",
        "id": "254dd744-ecaa-47e4-9cc3-2e4e65369995",
        "status": "final",
        "category": [
          {
            "coding": [
              {
                "system": "http://terminology.hl7.org/CodeSystem/observation-category",
                "code": "exam",
                "display": "Exam"
              }
            ],
            "text": "Exam"
          }
        ],
        "code": {
          "coding": [
            {
              "system": "http://snomed.info/sct",
              "code": "52613005",
              "display": "Excessive sweating"
            }
          ],
          "text": "Excessive sweating"
        },
        "subject": {
          "reference": "Patient/e4852d75-5bb7-4cd8-ab21-227b3b67398d"
        },
        "encounter": {
          "reference": "Encounter/932a137f-cd9e-4158-98b5-a7406b485c7c"
        },
        "effectivePeriod": {
          "start": "2025-10-16"
        },
        "valueBoolean": true,
        "note": [
          {
            "text": "Definition: https://snomed.info/id/52613005"
          }
        ]
      },
      "request": {
        "method": "POST",
        "url": "Observation"
      }
    },
    {
      "fullUrl": "urn:uuid:0dc6b185-fea5-48ee-9f77-efd834bbd19f",
      "resource": {
        "resourceType": "Observation",
        "id": "0dc6b185-fea5-48ee-9f77-efd834bbd19f",
        "status": "final",
        "category": [
          {
            "coding": [
              {
                "system": "http://terminology.hl7.org/CodeSystem/observation-category",
                "code": "vital-signs",
                "display": "Vital Signs"
              }
            ],
            "text": "Vital Signs"
          }
        ],
        "code": {
          "coding": [
            {
              "system": "http://loinc.org",
              "code": "11753-1",
              "display": "EFW from AC+HC"
            }
          ],
          "text": "head_circumference"
        },
        "subject": {
          "reference": "Patient/e4852d75-5bb7-4cd8-ab21-227b3b67398d"
        },
        "encounter": {
          "reference": "Encounter/932a137f-cd9e-4158-98b5-a7406b485c7c"
        },
        "effectiveDateTime": "2025-10-16",
        "interpretation": [
          {
            "coding": [
              {
                "system": "http://terminology.hl7.org/CodeSystem/v3-ObservationInterpretation",
                "code": "H",
                "display": "High"
              }
            ],
            "text": "High"
          }
        ]
      },
      "request": {
        "method": "POST",
        "url": "Observation"
      }
    },
    {
      "fullUrl": "urn:uuid:becb142d-9d9c-4dab-bdd2-2efe9dde111f",
      "resource": {
        "resourceType": "Observation",
        "id": "becb142d-9d9c-4dab-bdd2-2efe9dde111f",
        "status": "final",
        "category": [
          {
            "coding": [
              {
                "system": "http://terminology.hl7.org/CodeSystem/observation-category",
                "code": "vital-signs",
                "display": "Vital Signs"
              }
            ],
            "text": "Vital Signs"
          }
        ],
        "code": {
          "coding": [
            {
              "system": "http://loinc.org",
              "code": "8337-8",
              "display": "Bdy weight special circumstances"
            }
          ],
          "text": "weight"
        },
        "subject": {
          "reference": "Patient/e4852d75-5bb7-4cd8-ab21-227b3b67398d"
        },
        "encounter": {
          "reference": "Encounter/932a137f-cd9e-4158-98b5-a7406b485c7c"
        },
        "effectiveDateTime": "2025-10-16",
        "interpretation": [
          {
            "coding": [
              {
                "system": "http://terminology.hl7.org/CodeSystem/v3-ObservationInterpretation",
                "code": "H",
                "display": "High"
              }
            ],
            "text": "High"
          }
        ]
      },
      "request": {
        "method": "POST",
        "url": "Observation"
      }
    },
    {
      "fullUrl": "urn:uuid:fd225ad8-34e8-4c60-9d00-63a0723f20d1",
      "resource": {
        "resourceType": "MedicationStatement",
        "id": "fd225ad8-34e8-4c60-9d00-63a0723f20d1",
        "status": "recorded",
        "medication": {
          "concept": {
            "coding": [
              {
                "system": "http://snomed.info/sct",
                "code": "372567009",
                "display": "Metformin"
              }
            ],
            "text": "Metformin"
          }
        },
        "subject": {
          "reference": "Patient/e4852d75-5bb7-4cd8-ab21-227b3b67398d"
        },
        "encounter": {
          "reference": "Encounter/932a137f-cd9e-4158-98b5-a7406b485c7c"
        },
        "effectiveDateTime": "2025-10-16",
        "informationSource": [
          {
            "reference": "Patient/e4852d75-5bb7-4cd8-ab21-227b3b67398d"
          }
        ]
      },
      "request": {
        "method": "POST",
        "url": "MedicationStatement"
      }
    },
    {
      "fullUrl": "urn:uuid:ef8589d0-19ee-48de-b757-c99ffe5bee20",
      "resource": {
        "resourceType": "List",
        "id": "ef8589d0-19ee-48de-b757-c99ffe5bee20",
        "contained": [
          {
            "resourceType": "FamilyMemberHistory",
            "id": "fmh-2",
            "status": "completed",
            "patient": {
              "reference": "Patient/e4852d75-5bb7-4cd8-ab21-227b3b67398d"
            },
            "relationship": {
              "coding": [
                {
                  "system": "http://snomed.info/sct",
                  "code": "72705000",
                  "display": "Mother"
                }
              ]
            },
            "deceasedBoolean": false,
            "condition": [
              {
                "code": {
                  "coding": [
                    {
                      "system": "http://snomed.info/sct",
                      "code": "38341003",
                      "display": "Hypertensive disorder"
                    }
                  ]
                }
              }
            ]
          }
        ],
        "status": "current",
        "mode": "snapshot",
        "code": {
          "coding": [
            {
              "system": "http://loinc.org",
              "code": "8670-2",
              "display": "History of family member diseases"
            }
          ]
        },
        "subject": [
          {
            "reference": "Patient/e4852d75-5bb7-4cd8-ab21-227b3b67398d"
          }
        ],
        "entry": [
          {
            "item": {
              "reference": "#fmh-2"
            }
          }
        ]
      },
      "request": {
        "method": "POST",
        "url": "FamilyMemberHistory"
      }
    }
  ]
}