{
  "resourceType": "Bundle",
  "type": "transaction",
  "entry": [
    {
      "fullUrl": "urn:uuid:67f20e50-2cf9-45a2-8da8-48a3f5a796aa",
      "resource": {
        "resourceType": "Patient",
        "id": "67f20e50-2cf9-45a2-8da8-48a3f5a796aa",
        "name": [
          {
            "family": "Ivanova",
            "given": [
              "Sofia"
            ]
          }
        ],
        "gender": "female",
        "birthDate": "1991-07-04",
        "address": [
          {}
        ]
      },
      "request": {
        "method": "POST",
        "url": "Patient"
      }
    },
    {
      "fullUrl": "urn:uuid:d75554ba-eb64-44fb-af48-11267cef71e2",
      "resource": {
        "resourceType": "Encounter",
        "id": "d75554ba-eb64-44fb-af48-11267cef71e2",
        "identifier": [
          {
            "use": "temp",
            "value": "Encounter_Sofia Ivanova_20251022152042"
          }
        ],
        "status": "completed",
        "priority": {
          "coding": [
            {
              "system": "http://snomed.info/sct",
              "code": "17621005",
              "display": "Normal"
            }
          ]
        },
        "type": [
          {
            "coding": [
              {
                "system": "http://snomed.info/sct",
                "code": "11429006",
                "display": "Consultation"
              }
            ]
          }
        ],
        "subject": {
          "reference": "Patient/67f20e50-2cf9-45a2-8da8-48a3f5a796aa",
          "display": "Sofia Ivanova"
        },
        "reason": [
          {
            "value": [
              {
                "concept": {
                  "text": "subtle facial puffiness and mild fatigue over the past year"
                }
              }
            ]
          }
        ]
      },
      "request": {
        "method": "POST",
        "url": "Encounter"
      }
    },
    {
      "fullUrl": "urn:uuid:24012cf5-40af-4b3d-8f8e-e63e0124dd10",
      "resource": {
        "resourceType": "Observation",
        "id": "24012cf5-40af-4b3d-8f8e-e63e0124dd10",
        "status": "final",
        "category": [
          {
            "coding": [
              {
                "system": "http://terminology.hl7.org/CodeSystem/observation-category",
                "code": "laboratory",
                "display": "Laboratory"
              }
            ],
            "text": "Laboratory"
          }
        ],
        "code": {
          "coding": [
            {
              "system": "http://loinc.org",
              "code": "42788-0",
              "display": "IGF-IR Ag Tiss Ql ImStn"
            }
          ],
          "text": "IGF-1"
        },
        "subject": {
          "reference": "Patient/67f20e50-2cf9-45a2-8da8-48a3f5a796aa"
        },
        "encounter": {
          "reference": "Encounter/d75554ba-eb64-44fb-af48-11267cef71e2"
        },
        "effectiveDateTime": "2025-10-16",
        "interpretation": [
          {
            "coding": [
              {
                "system": "http://terminology.hl7.org/CodeSystem/v3-ObservationInterpretation",
                "code": "H",
                "display": "High"
              }
            ]
          }
        ],
        "note": [
          {
            "text": "Definition: https://loinc.org/42788-0/"
          }
        ]
      },
      "request": {
        "method": "POST",
        "url": "Observation"
      }
    },
    {
      "fullUrl": "urn:uuid:5c0074cd-324e-4946-a189-3bd2e9f06cc2",
      "resource": {
        "resourceType": "Observation",
        "id": "5c0074cd-324e-4946-a189-3bd2e9f06cc2",
        "status": "final",
        "category": [
          {
            "coding": [
              {
                "system": "http://terminology.hl7.org/CodeSystem/observation-category",
                "code": "laboratory",
                "display": "Laboratory"
              }
            ],
            "text": "Laboratory"
          }
        ],
        "code": {
          "coding": [
            {
              "system": "http://loinc.org",
              "code": "62856-0",
              "display": "PhenX - oral glucose tolerance test protocol 141001"
            }
          ],
          "text": "Oral Glucose Tolerance Test"
        },
        "subject": {
          "reference": "Patient/67f20e50-2cf9-45a2-8da8-48a3f5a796aa"
        },
        "encounter": {
          "reference": "Encounter/d75554ba-eb64-44fb-af48-11267cef71e2"
        },
        "effectiveDateTime": "2025-10-16",
        "interpretation": [
          {
            "coding": [
              {
                "system": "http://terminology.hl7.org/CodeSystem/v3-ObservationInterpretation",
                "code": "A",
                "display": "Abnormal"
              }
            ]
          }
        ],
        "note": [
          {
            "text": "Definition: https://loinc.org/62856-0/"
          }
        ]
      },
      "request": {
        "method": "POST",
        "url": "Observation"
      }
    },
    {
      "fullUrl": "urn:uuid:1eb8c37c-fca5-4d73-bf37-c3953e9eea7c",
      "resource": {
        "resourceType": "Observation",
        "id": "1eb8c37c-fca5-4d73-bf37-c3953e9eea7c",
        "status": "final",
        "category": [
          {
            "coding": [
              {
                "system": "http://terminology.hl7.org/CodeSystem/observation-category",
                "code": "exam",
                "display": "Exam"
              }
            ],
            "text": "Exam"
          }
        ],
        "code": {
          "coding": [
            {
              "system": "http://snomed.info/sct",
              "code": "71718006",
              "display": "Puffiness of skin"
            }
          ],
          "text": "Facial puffiness"
        },
        "subject": {
          "reference": "Patient/67f20e50-2cf9-45a2-8da8-48a3f5a796aa"
        },
        "encounter": {
          "reference": "Encounter/d75554ba-eb64-44fb-af48-11267cef71e2"
        },
        "effectivePeriod": {
          "start": "2025-10-16"
        },
        "valueBoolean": true,
        "note": [
          {
            "text": "Definition: https://snomed.info/id/71718006"
          }
        ]
      },
      "request": {
        "method": "POST",
        "url": "Observation"
      }
    },
    {
      "fullUrl": "urn:uuid:aa52849b-93c2-4e08-ac9a-d9a17493e753",
      "resource": {
        "resourceType": "Observation",
        "id": "aa52849b-93c2-4e08-ac9a-d9a17493e753",
        "status": "final",
        "category": [
          {
            "coding": [
              {
                "system": "http://terminology.hl7.org/CodeSystem/observation-category",
                "code": "exam",
                "display": "Exam"
              }
            ],
            "text": "Exam"
          }
        ],
        "code": {
          "coding": [
            {
              "system": "http://snomed.info/sct",
              "code": "84229001",
              "display": "Fatigue"
            }
          ],
          "text": "Fatigue"
        },
        "subject": {
          "reference": "Patient/67f20e50-2cf9-45a2-8da8-48a3f5a796aa"
        },
        "encounter": {
          "reference": "Encounter/d75554ba-eb64-44fb-af48-11267cef71e2"
        },
        "effectivePeriod": {
          "start": "2025-10-16"
        },
        "valueBoolean": true,
        "note": [
          {
            "text": "Definition: https://snomed.info/id/84229001"
          }
        ]
      },
      "request": {
        "method": "POST",
        "url": "Observation"
      }
    },
    {
      "fullUrl": "urn:uuid:102e22dd-5dc5-461e-8284-f5b97731bd4b",
      "resource": {
        "resourceType": "Observation",
        "id": "102e22dd-5dc5-461e-8284-f5b97731bd4b",
        "status": "final",
        "category": [
          {
            "coding": [
              {
                "system": "http://terminology.hl7.org/CodeSystem/observation-category",
                "code": "exam",
                "display": "Exam"
              }
            ],
            "text": "Exam"
          }
        ],
        "code": {
          "coding": [
            {
              "system": "http://snomed.info/sct",
              "code": "263899003",
              "display": "Thickened"
            }
          ],
          "text": "Thickened skin"
        },
        "subject": {
          "reference": "Patient/67f20e50-2cf9-45a2-8da8-48a3f5a796aa"
        },
        "encounter": {
          "reference": "Encounter/d75554ba-eb64-44fb-af48-11267cef71e2"
        },
        "effectivePeriod": {
          "start": "2025-10-16"
        },
        "valueBoolean": true,
        "note": [
          {
            "text": "Definition: https://snomed.info/id/263899003"
          }
        ]
      },
      "request": {
        "method": "POST",
        "url": "Observation"
      }
    },
    {
      "fullUrl": "urn:uuid:2ab6a29d-f279-4c5c-8d38-f0cdf815a3fc",
      "resource": {
        "resourceType": "Observation",
        "id": "2ab6a29d-f279-4c5c-8d38-f0cdf815a3fc",
        "status": "final",
        "category": [
          {
            "coding": [
              {
                "system": "http://terminology.hl7.org/CodeSystem/observation-category",
                "code": "exam",
                "display": "Exam"
              }
            ],
            "text": "Exam"
          }
        ],
        "code": {
          "coding": [
            {
              "system": "http://snomed.info/sct",
              "code": "90145001",
              "display": "Frontal bossing"
            }
          ],
          "text": "Frontal bossing"
        },
        "subject": {
          "reference": "Patient/67f20e50-2cf9-45a2-8da8-48a3f5a796aa"
        },
        "encounter": {
          "reference": "Encounter/d75554ba-eb64-44fb-af48-11267cef71e2"
        },
        "effectivePeriod": {
          "start": "2025-10-16"
        },
        "valueBoolean": true,
        "note": [
          {
            "text": "Definition: https://snomed.info/id/90145001"
          }
        ]
      },
      "request": {
        "method": "POST",
        "url": "Observation"
      }
    }
  ]
}