{
  "resourceType": "Bundle",
  "type": "transaction",
  "entry": [
    {
      "fullUrl": "urn:uuid:925322b1-01bc-4c57-b9d0-2743738b95dc",
      "resource": {
        "resourceType": "Patient",
        "id": "925322b1-01bc-4c57-b9d0-2743738b95dc",
        "name": [
          {
            "family": "Petrov",
            "given": [
              "Andrei"
            ]
          }
        ],
        "gender": "male",
        "birthDate": "1989-01-01",
        "address": [
          {}
        ]
      },
      "request": {
        "method": "POST",
        "url": "Patient"
      }
    },
    {
      "fullUrl": "urn:uuid:dc829a7a-4502-4138-af9d-d91b316e1b90",
      "resource": {
        "resourceType": "Encounter",
        "id": "dc829a7a-4502-4138-af9d-d91b316e1b90",
        "identifier": [
          {
            "use": "temp",
            "value": "Encounter_Andrei Petrov_20251020131457"
          }
        ],
        "status": "completed",
        "priority": {
          "coding": [
            {
              "system": "http://snomed.info/sct",
              "code": "17621005",
              "display": "Normal"
            }
          ]
        },
        "type": [
          {
            "coding": [
              {
                "system": "http://snomed.info/sct",
                "code": "11429006",
                "display": "Consultation"
              }
            ]
          }
        ],
        "subject": {
          "reference": "Patient/925322b1-01bc-4c57-b9d0-2743738b95dc",
          "display": "Andrei Petrov"
        },
        "reason": [
          {
            "value": [
              {
                "concept": {
                  "text": "progressive enlargement of hands and feet, headaches, and excessive sweating"
                }
              }
            ]
          }
        ]
      },
      "request": {
        "method": "POST",
        "url": "Encounter"
      }
    },
    {
      "fullUrl": "urn:uuid:1d90e43d-4a56-4e12-bb25-e7408e540706",
      "resource": {
        "resourceType": "Observation",
        "id": "1d90e43d-4a56-4e12-bb25-e7408e540706",
        "status": "final",
        "category": [
          {
            "coding": [
              {
                "system": "http://terminology.hl7.org/CodeSystem/observation-category",
                "code": "laboratory",
                "display": "Laboratory"
              }
            ],
            "text": "Laboratory"
          }
        ],
        "code": {
          "coding": [
            {
              "system": "http://loinc.org",
              "code": "42788-0",
              "display": "IGF-IR Ag Tiss Ql ImStn"
            }
          ],
          "text": "IGF-1"
        },
        "subject": {
          "reference": "Patient/925322b1-01bc-4c57-b9d0-2743738b95dc"
        },
        "encounter": {
          "reference": "Encounter/dc829a7a-4502-4138-af9d-d91b316e1b90"
        },
        "effectiveDateTime": "2025-10-16",
        "interpretation": [
          {
            "coding": [
              {
                "system": "http://terminology.hl7.org/CodeSystem/v3-ObservationInterpretation",
                "code": "H",
                "display": "High"
              }
            ]
          }
        ],
        "note": [
          {
            "text": "Definition: https://loinc.org/42788-0/"
          }
        ]
      },
      "request": {
        "method": "POST",
        "url": "Observation"
      }
    },
    {
      "fullUrl": "urn:uuid:ed33b6ef-9a95-43a5-8329-1ecacc25b594",
      "resource": {
        "resourceType": "Observation",
        "id": "ed33b6ef-9a95-43a5-8329-1ecacc25b594",
        "status": "final",
        "category": [
          {
            "coding": [
              {
                "system": "http://terminology.hl7.org/CodeSystem/observation-category",
                "code": "laboratory",
                "display": "Laboratory"
              }
            ],
            "text": "Laboratory"
          }
        ],
        "code": {
          "coding": [
            {
              "system": "http://loinc.org",
              "code": "unknown",
              "display": "Impaired Fasting Glucose"
            }
          ],
          "text": "Impaired Fasting Glucose"
        },
        "subject": {
          "reference": "Patient/925322b1-01bc-4c57-b9d0-2743738b95dc"
        },
        "encounter": {
          "reference": "Encounter/dc829a7a-4502-4138-af9d-d91b316e1b90"
        },
        "effectiveDateTime": "2025-10-16",
        "interpretation": [
          {
            "coding": [
              {
                "system": "http://terminology.hl7.org/CodeSystem/v3-ObservationInterpretation",
                "code": "A",
                "display": "Abnormal"
              }
            ]
          }
        ]
      },
      "request": {
        "method": "POST",
        "url": "Observation"
      }
    },
    {
      "fullUrl": "urn:uuid:d00f4709-3f52-444f-acbe-cc3bad830814",
      "resource": {
        "resourceType": "Observation",
        "id": "d00f4709-3f52-444f-acbe-cc3bad830814",
        "status": "final",
        "category": [
          {
            "coding": [
              {
                "system": "http://terminology.hl7.org/CodeSystem/observation-category",
                "code": "exam",
                "display": "Exam"
              }
            ],
            "text": "Exam"
          }
        ],
        "code": {
          "coding": [
            {
              "system": "http://snomed.info/sct",
              "code": "248423008",
              "display": "Deprivation hands and feet"
            }
          ],
          "text": "Progressive enlargement of hands and feet"
        },
        "subject": {
          "reference": "Patient/925322b1-01bc-4c57-b9d0-2743738b95dc"
        },
        "encounter": {
          "reference": "Encounter/dc829a7a-4502-4138-af9d-d91b316e1b90"
        },
        "effectivePeriod": {
          "start": "2025-10-16"
        },
        "valueBoolean": true,
        "note": [
          {
            "text": "Definition: https://snomed.info/id/248423008"
          }
        ]
      },
      "request": {
        "method": "POST",
        "url": "Observation"
      }
    },
    {
      "fullUrl": "urn:uuid:28c55c3f-828a-4e04-ab38-bca4c52717c3",
      "resource": {
        "resourceType": "Observation",
        "id": "28c55c3f-828a-4e04-ab38-bca4c52717c3",
        "status": "final",
        "category": [
          {
            "coding": [
              {
                "system": "http://terminology.hl7.org/CodeSystem/observation-category",
                "code": "exam",
                "display": "Exam"
              }
            ],
            "text": "Exam"
          }
        ],
        "code": {
          "coding": [
            {
              "system": "http://snomed.info/sct"
            }
          ],
          "text": "Headaches"
        },
        "subject": {
          "reference": "Patient/925322b1-01bc-4c57-b9d0-2743738b95dc"
        },
        "encounter": {
          "reference": "Encounter/dc829a7a-4502-4138-af9d-d91b316e1b90"
        },
        "effectivePeriod": {
          "start": "2025-10-16"
        },
        "valueBoolean": true,
        "note": [
          {
            "text": "Definition: https://snomed.info/id/None"
          }
        ]
      },
      "request": {
        "method": "POST",
        "url": "Observation"
      }
    },
    {
      "fullUrl": "urn:uuid:cc13289a-8070-4139-9fd6-1b6c60fb0be4",
      "resource": {
        "resourceType": "Observation",
        "id": "cc13289a-8070-4139-9fd6-1b6c60fb0be4",
        "status": "final",
        "category": [
          {
            "coding": [
              {
                "system": "http://terminology.hl7.org/CodeSystem/observation-category",
                "code": "exam",
                "display": "Exam"
              }
            ],
            "text": "Exam"
          }
        ],
        "code": {
          "coding": [
            {
              "system": "http://snomed.info/sct",
              "code": "52613005",
              "display": "Excessive sweating"
            }
          ],
          "text": "Excessive sweating"
        },
        "subject": {
          "reference": "Patient/925322b1-01bc-4c57-b9d0-2743738b95dc"
        },
        "encounter": {
          "reference": "Encounter/dc829a7a-4502-4138-af9d-d91b316e1b90"
        },
        "effectivePeriod": {
          "start": "2025-10-16"
        },
        "valueBoolean": true,
        "note": [
          {
            "text": "Definition: https://snomed.info/id/52613005"
          }
        ]
      },
      "request": {
        "method": "POST",
        "url": "Observation"
      }
    },
    {
      "fullUrl": "urn:uuid:61db064b-8f39-4c74-91ff-5a0b97aad9d0",
      "resource": {
        "resourceType": "Observation",
        "id": "61db064b-8f39-4c74-91ff-5a0b97aad9d0",
        "status": "final",
        "category": [
          {
            "coding": [
              {
                "system": "http://terminology.hl7.org/CodeSystem/observation-category",
                "code": "vital-signs",
                "display": "Vital Signs"
              }
            ],
            "text": "Vital Signs"
          }
        ],
        "code": {
          "coding": [
            {
              "system": "http://loinc.org",
              "code": "11753-1",
              "display": "EFW from AC+HC"
            }
          ],
          "text": "head_circumference"
        },
        "subject": {
          "reference": "Patient/925322b1-01bc-4c57-b9d0-2743738b95dc"
        },
        "encounter": {
          "reference": "Encounter/dc829a7a-4502-4138-af9d-d91b316e1b90"
        },
        "effectiveDateTime": "2025-10-16",
        "interpretation": [
          {
            "coding": [
              {
                "system": "http://terminology.hl7.org/CodeSystem/v3-ObservationInterpretation",
                "code": "H",
                "display": "High"
              }
            ],
            "text": "High"
          }
        ]
      },
      "request": {
        "method": "POST",
        "url": "Observation"
      }
    },
    {
      "fullUrl": "urn:uuid:fbd6359c-a836-4c19-8b35-3dd427f739ee",
      "resource": {
        "resourceType": "Observation",
        "id": "fbd6359c-a836-4c19-8b35-3dd427f739ee",
        "status": "final",
        "category": [
          {
            "coding": [
              {
                "system": "http://terminology.hl7.org/CodeSystem/observation-category",
                "code": "vital-signs",
                "display": "Vital Signs"
              }
            ],
            "text": "Vital Signs"
          }
        ],
        "code": {
          "coding": [
            {
              "system": "http://loinc.org",
              "code": "8337-8",
              "display": "Bdy weight special circumstances"
            }
          ],
          "text": "weight"
        },
        "subject": {
          "reference": "Patient/925322b1-01bc-4c57-b9d0-2743738b95dc"
        },
        "encounter": {
          "reference": "Encounter/dc829a7a-4502-4138-af9d-d91b316e1b90"
        },
        "effectiveDateTime": "2025-10-16",
        "interpretation": [
          {
            "coding": [
              {
                "system": "http://terminology.hl7.org/CodeSystem/v3-ObservationInterpretation",
                "code": "H",
                "display": "High"
              }
            ],
            "text": "High"
          }
        ]
      },
      "request": {
        "method": "POST",
        "url": "Observation"
      }
    },
    {
      "fullUrl": "urn:uuid:b8e12b98-1d3d-46fc-b04e-c0d41af13526",
      "resource": {
        "resourceType": "MedicationStatement",
        "id": "b8e12b98-1d3d-46fc-b04e-c0d41af13526",
        "status": "recorded",
        "medication": {
          "concept": {
            "coding": [
              {
                "system": "http://snomed.info/sct",
                "code": "372567009",
                "display": "Metformin"
              }
            ],
            "text": "Metformin"
          }
        },
        "subject": {
          "reference": "Patient/925322b1-01bc-4c57-b9d0-2743738b95dc"
        },
        "encounter": {
          "reference": "Encounter/dc829a7a-4502-4138-af9d-d91b316e1b90"
        },
        "effectiveDateTime": "2025-10-16",
        "informationSource": [
          {
            "reference": "Patient/925322b1-01bc-4c57-b9d0-2743738b95dc"
          }
        ]
      },
      "request": {
        "method": "POST",
        "url": "MedicationStatement"
      }
    },
    {
      "fullUrl": "urn:uuid:bee36e3d-189f-45f3-a97e-580dc8d81146",
      "resource": {
        "resourceType": "List",
        "id": "bee36e3d-189f-45f3-a97e-580dc8d81146",
        "contained": [
          {
            "resourceType": "FamilyMemberHistory",
            "id": "fmh-2",
            "status": "completed",
            "patient": {
              "reference": "Patient/925322b1-01bc-4c57-b9d0-2743738b95dc"
            },
            "relationship": {
              "coding": [
                {
                  "system": "http://snomed.info/sct",
                  "code": "72705000",
                  "display": "Mother"
                }
              ]
            },
            "deceasedBoolean": false,
            "condition": [
              {
                "code": {
                  "coding": [
                    {
                      "system": "http://snomed.info/sct",
                      "code": "38341003",
                      "display": "Hypertensive disorder"
                    }
                  ]
                }
              }
            ]
          }
        ],
        "status": "current",
        "mode": "snapshot",
        "code": {
          "coding": [
            {
              "system": "http://loinc.org",
              "code": "8670-2",
              "display": "History of family member diseases"
            }
          ]
        },
        "subject": [
          {
            "reference": "Patient/925322b1-01bc-4c57-b9d0-2743738b95dc"
          }
        ],
        "entry": [
          {
            "item": {
              "reference": "#fmh-2"
            }
          }
        ]
      },
      "request": {
        "method": "POST",
        "url": "FamilyMemberHistory"
      }
    }
  ]
}