{
  "resourceType": "Bundle",
  "type": "transaction",
  "entry": [
    {
      "fullUrl": "urn:uuid:e9db4ccb-17e3-4c37-9d47-9b8b939b2e29",
      "resource": {
        "resourceType": "Patient",
        "id": "e9db4ccb-17e3-4c37-9d47-9b8b939b2e29",
        "name": [
          {
            "family": "Petrov",
            "given": [
              "Andrei"
            ]
          }
        ],
        "gender": "male",
        "birthDate": "1989-07-04",
        "address": [
          {}
        ]
      },
      "request": {
        "method": "POST",
        "url": "Patient"
      }
    },
    {
      "fullUrl": "urn:uuid:0c38ef3a-12fe-4d91-af6f-d58906fe71f7",
      "resource": {
        "resourceType": "Encounter",
        "id": "0c38ef3a-12fe-4d91-af6f-d58906fe71f7",
        "identifier": [
          {
            "use": "temp",
            "value": "Encounter_Andrei Petrov_20251022152025"
          }
        ],
        "status": "completed",
        "priority": {
          "coding": [
            {
              "system": "http://snomed.info/sct",
              "code": "17621005",
              "display": "Normal"
            }
          ]
        },
        "type": [
          {
            "coding": [
              {
                "system": "http://snomed.info/sct",
                "code": "11429006",
                "display": "Consultation"
              }
            ]
          }
        ],
        "subject": {
          "reference": "Patient/e9db4ccb-17e3-4c37-9d47-9b8b939b2e29",
          "display": "Andrei Petrov"
        },
        "reason": [
          {
            "value": [
              {
                "concept": {
                  "text": "progressive enlargement of hands and feet, headaches, and excessive sweating"
                }
              }
            ]
          }
        ]
      },
      "request": {
        "method": "POST",
        "url": "Encounter"
      }
    },
    {
      "fullUrl": "urn:uuid:fe17351a-ec8d-4e33-89d7-bf2cc393f429",
      "resource": {
        "resourceType": "Observation",
        "id": "fe17351a-ec8d-4e33-89d7-bf2cc393f429",
        "status": "final",
        "category": [
          {
            "coding": [
              {
                "system": "http://terminology.hl7.org/CodeSystem/observation-category",
                "code": "laboratory",
                "display": "Laboratory"
              }
            ],
            "text": "Laboratory"
          }
        ],
        "code": {
          "coding": [
            {
              "system": "http://loinc.org",
              "code": "42788-0",
              "display": "IGF-IR Ag Tiss Ql ImStn"
            }
          ],
          "text": "IGF-1"
        },
        "subject": {
          "reference": "Patient/e9db4ccb-17e3-4c37-9d47-9b8b939b2e29"
        },
        "encounter": {
          "reference": "Encounter/0c38ef3a-12fe-4d91-af6f-d58906fe71f7"
        },
        "effectiveDateTime": "2025-10-16",
        "interpretation": [
          {
            "coding": [
              {
                "system": "http://terminology.hl7.org/CodeSystem/v3-ObservationInterpretation",
                "code": "H",
                "display": "High"
              }
            ]
          }
        ],
        "note": [
          {
            "text": "Definition: https://loinc.org/42788-0/"
          }
        ]
      },
      "request": {
        "method": "POST",
        "url": "Observation"
      }
    },
    {
      "fullUrl": "urn:uuid:9a2b85a7-5169-42b8-a968-ce50b2c8d3de",
      "resource": {
        "resourceType": "Observation",
        "id": "9a2b85a7-5169-42b8-a968-ce50b2c8d3de",
        "status": "final",
        "category": [
          {
            "coding": [
              {
                "system": "http://terminology.hl7.org/CodeSystem/observation-category",
                "code": "laboratory",
                "display": "Laboratory"
              }
            ],
            "text": "Laboratory"
          }
        ],
        "code": {
          "coding": [
            {
              "system": "http://loinc.org",
              "code": "16913-6",
              "display": "Glucose p fast Ur Ql"
            }
          ],
          "text": "Fasting Glucose"
        },
        "subject": {
          "reference": "Patient/e9db4ccb-17e3-4c37-9d47-9b8b939b2e29"
        },
        "encounter": {
          "reference": "Encounter/0c38ef3a-12fe-4d91-af6f-d58906fe71f7"
        },
        "effectiveDateTime": "2025-10-16",
        "interpretation": [
          {
            "coding": [
              {
                "system": "http://terminology.hl7.org/CodeSystem/v3-ObservationInterpretation",
                "code": "A",
                "display": "Abnormal"
              }
            ]
          }
        ],
        "note": [
          {
            "text": "Definition: https://loinc.org/16913-6/"
          }
        ]
      },
      "request": {
        "method": "POST",
        "url": "Observation"
      }
    },
    {
      "fullUrl": "urn:uuid:24c10446-50c1-404a-9fe9-8097adc015cb",
      "resource": {
        "resourceType": "Observation",
        "id": "24c10446-50c1-404a-9fe9-8097adc015cb",
        "status": "final",
        "category": [
          {
            "coding": [
              {
                "system": "http://terminology.hl7.org/CodeSystem/observation-category",
                "code": "exam",
                "display": "Exam"
              }
            ],
            "text": "Exam"
          }
        ],
        "code": {
          "coding": [
            {
              "system": "http://snomed.info/sct",
              "code": "248423008",
              "display": "Deprivation hands and feet"
            }
          ],
          "text": "Enlargement of hands and feet"
        },
        "subject": {
          "reference": "Patient/e9db4ccb-17e3-4c37-9d47-9b8b939b2e29"
        },
        "encounter": {
          "reference": "Encounter/0c38ef3a-12fe-4d91-af6f-d58906fe71f7"
        },
        "effectivePeriod": {
          "start": "2025-10-16"
        },
        "valueBoolean": true,
        "note": [
          {
            "text": "Definition: https://snomed.info/id/248423008"
          }
        ]
      },
      "request": {
        "method": "POST",
        "url": "Observation"
      }
    },
    {
      "fullUrl": "urn:uuid:54c45791-1ed9-48ce-b0bd-b48150acdbb9",
      "resource": {
        "resourceType": "Observation",
        "id": "54c45791-1ed9-48ce-b0bd-b48150acdbb9",
        "status": "final",
        "category": [
          {
            "coding": [
              {
                "system": "http://terminology.hl7.org/CodeSystem/observation-category",
                "code": "exam",
                "display": "Exam"
              }
            ],
            "text": "Exam"
          }
        ],
        "code": {
          "coding": [
            {
              "system": "http://snomed.info/sct"
            }
          ],
          "text": "Headaches"
        },
        "subject": {
          "reference": "Patient/e9db4ccb-17e3-4c37-9d47-9b8b939b2e29"
        },
        "encounter": {
          "reference": "Encounter/0c38ef3a-12fe-4d91-af6f-d58906fe71f7"
        },
        "effectivePeriod": {
          "start": "2025-10-16"
        },
        "valueBoolean": true,
        "note": [
          {
            "text": "Definition: https://snomed.info/id/None"
          }
        ]
      },
      "request": {
        "method": "POST",
        "url": "Observation"
      }
    },
    {
      "fullUrl": "urn:uuid:b118c0fc-43da-4ff8-9c85-69d25cc47a28",
      "resource": {
        "resourceType": "Observation",
        "id": "b118c0fc-43da-4ff8-9c85-69d25cc47a28",
        "status": "final",
        "category": [
          {
            "coding": [
              {
                "system": "http://terminology.hl7.org/CodeSystem/observation-category",
                "code": "exam",
                "display": "Exam"
              }
            ],
            "text": "Exam"
          }
        ],
        "code": {
          "coding": [
            {
              "system": "http://snomed.info/sct",
              "code": "52613005",
              "display": "Excessive sweating"
            }
          ],
          "text": "Excessive sweating"
        },
        "subject": {
          "reference": "Patient/e9db4ccb-17e3-4c37-9d47-9b8b939b2e29"
        },
        "encounter": {
          "reference": "Encounter/0c38ef3a-12fe-4d91-af6f-d58906fe71f7"
        },
        "effectivePeriod": {
          "start": "2025-10-16"
        },
        "valueBoolean": true,
        "note": [
          {
            "text": "Definition: https://snomed.info/id/52613005"
          }
        ]
      },
      "request": {
        "method": "POST",
        "url": "Observation"
      }
    },
    {
      "fullUrl": "urn:uuid:967d3b6b-26d8-432d-a403-842ce54c43d8",
      "resource": {
        "resourceType": "Observation",
        "id": "967d3b6b-26d8-432d-a403-842ce54c43d8",
        "status": "final",
        "category": [
          {
            "coding": [
              {
                "system": "http://terminology.hl7.org/CodeSystem/observation-category",
                "code": "vital-signs",
                "display": "Vital Signs"
              }
            ],
            "text": "Vital Signs"
          }
        ],
        "code": {
          "coding": [
            {
              "system": "http://loinc.org",
              "code": "11753-1",
              "display": "EFW from AC+HC"
            }
          ],
          "text": "head_circumference"
        },
        "subject": {
          "reference": "Patient/e9db4ccb-17e3-4c37-9d47-9b8b939b2e29"
        },
        "encounter": {
          "reference": "Encounter/0c38ef3a-12fe-4d91-af6f-d58906fe71f7"
        },
        "effectiveDateTime": "2025-10-16",
        "interpretation": [
          {
            "coding": [
              {
                "system": "http://terminology.hl7.org/CodeSystem/v3-ObservationInterpretation",
                "code": "H",
                "display": "High"
              }
            ],
            "text": "High"
          }
        ]
      },
      "request": {
        "method": "POST",
        "url": "Observation"
      }
    },
    {
      "fullUrl": "urn:uuid:5e3ed135-f640-4d81-956c-66a18b4646e1",
      "resource": {
        "resourceType": "Observation",
        "id": "5e3ed135-f640-4d81-956c-66a18b4646e1",
        "status": "final",
        "category": [
          {
            "coding": [
              {
                "system": "http://terminology.hl7.org/CodeSystem/observation-category",
                "code": "vital-signs",
                "display": "Vital Signs"
              }
            ],
            "text": "Vital Signs"
          }
        ],
        "code": {
          "coding": [
            {
              "system": "http://loinc.org",
              "code": "8337-8",
              "display": "Bdy weight special circumstances"
            }
          ],
          "text": "weight"
        },
        "subject": {
          "reference": "Patient/e9db4ccb-17e3-4c37-9d47-9b8b939b2e29"
        },
        "encounter": {
          "reference": "Encounter/0c38ef3a-12fe-4d91-af6f-d58906fe71f7"
        },
        "effectiveDateTime": "2025-10-16",
        "interpretation": [
          {
            "coding": [
              {
                "system": "http://terminology.hl7.org/CodeSystem/v3-ObservationInterpretation",
                "code": "H",
                "display": "High"
              }
            ],
            "text": "High"
          }
        ]
      },
      "request": {
        "method": "POST",
        "url": "Observation"
      }
    },
    {
      "fullUrl": "urn:uuid:9db1e86c-3e79-46e0-bbd8-be45ef8e864b",
      "resource": {
        "resourceType": "MedicationStatement",
        "id": "9db1e86c-3e79-46e0-bbd8-be45ef8e864b",
        "status": "recorded",
        "medication": {
          "concept": {
            "coding": [
              {
                "system": "http://snomed.info/sct",
                "code": "372567009",
                "display": "Metformin"
              }
            ],
            "text": "Metformin"
          }
        },
        "subject": {
          "reference": "Patient/e9db4ccb-17e3-4c37-9d47-9b8b939b2e29"
        },
        "encounter": {
          "reference": "Encounter/0c38ef3a-12fe-4d91-af6f-d58906fe71f7"
        },
        "effectiveDateTime": "2025-10-16",
        "informationSource": [
          {
            "reference": "Patient/e9db4ccb-17e3-4c37-9d47-9b8b939b2e29"
          }
        ]
      },
      "request": {
        "method": "POST",
        "url": "MedicationStatement"
      }
    },
    {
      "fullUrl": "urn:uuid:89d8ccc4-9605-4370-966b-ef2ea2c88b9b",
      "resource": {
        "resourceType": "List",
        "id": "89d8ccc4-9605-4370-966b-ef2ea2c88b9b",
        "contained": [
          {
            "resourceType": "FamilyMemberHistory",
            "id": "fmh-2",
            "status": "completed",
            "patient": {
              "reference": "Patient/e9db4ccb-17e3-4c37-9d47-9b8b939b2e29"
            },
            "relationship": {
              "coding": [
                {
                  "system": "http://snomed.info/sct",
                  "code": "72705000",
                  "display": "Mother"
                }
              ]
            },
            "deceasedBoolean": false,
            "condition": [
              {
                "code": {
                  "coding": [
                    {
                      "system": "http://snomed.info/sct",
                      "code": "38341003",
                      "display": "Hypertensive disorder"
                    }
                  ]
                }
              }
            ]
          }
        ],
        "status": "current",
        "mode": "snapshot",
        "code": {
          "coding": [
            {
              "system": "http://loinc.org",
              "code": "8670-2",
              "display": "History of family member diseases"
            }
          ]
        },
        "subject": [
          {
            "reference": "Patient/e9db4ccb-17e3-4c37-9d47-9b8b939b2e29"
          }
        ],
        "entry": [
          {
            "item": {
              "reference": "#fmh-2"
            }
          }
        ]
      },
      "request": {
        "method": "POST",
        "url": "FamilyMemberHistory"
      }
    }
  ]
}