{
  "resourceType": "Bundle",
  "type": "transaction",
  "entry": [
    {
      "fullUrl": "urn:uuid:d7c39134-44a4-4439-a415-085ebabe5146",
      "resource": {
        "resourceType": "Patient",
        "id": "d7c39134-44a4-4439-a415-085ebabe5146",
        "name": [
          {
            "family": "Wilson",
            "given": [
              "Emily"
            ]
          }
        ],
        "gender": "female",
        "birthDate": "1993-01-01",
        "address": [
          {}
        ]
      },
      "request": {
        "method": "POST",
        "url": "Patient"
      }
    },
    {
      "fullUrl": "urn:uuid:fb7bba16-562b-4cd7-a35b-53ede8810253",
      "resource": {
        "resourceType": "Encounter",
        "id": "fb7bba16-562b-4cd7-a35b-53ede8810253",
        "identifier": [
          {
            "use": "temp",
            "value": "Encounter_Emily Wilson_20251023095409"
          }
        ],
        "status": "completed",
        "priority": {
          "coding": [
            {
              "system": "http://snomed.info/sct",
              "code": "17621005",
              "display": "Normal"
            }
          ]
        },
        "type": [
          {
            "coding": [
              {
                "system": "http://snomed.info/sct",
                "code": "11429006",
                "display": "Consultation"
              }
            ]
          }
        ],
        "subject": {
          "reference": "Patient/d7c39134-44a4-4439-a415-085ebabe5146",
          "display": "Emily Wilson"
        },
        "reason": [
          {
            "value": [
              {
                "concept": {
                  "text": "intermittent fever"
                }
              }
            ]
          }
        ]
      },
      "request": {
        "method": "POST",
        "url": "Encounter"
      }
    },
    {
      "fullUrl": "urn:uuid:2141ee66-7e7b-4146-b43f-e8f8deca4d64",
      "resource": {
        "resourceType": "Observation",
        "id": "2141ee66-7e7b-4146-b43f-e8f8deca4d64",
        "status": "final",
        "category": [
          {
            "coding": [
              {
                "system": "http://terminology.hl7.org/CodeSystem/observation-category",
                "code": "laboratory",
                "display": "Laboratory"
              }
            ],
            "text": "Laboratory"
          }
        ],
        "code": {
          "coding": [
            {
              "system": "http://loinc.org",
              "code": "30341-2",
              "display": "Erythrocyte Sed Rat Bld"
            }
          ],
          "text": "Erythrocyte Sedimentation Rate"
        },
        "subject": {
          "reference": "Patient/d7c39134-44a4-4439-a415-085ebabe5146"
        },
        "encounter": {
          "reference": "Encounter/fb7bba16-562b-4cd7-a35b-53ede8810253"
        },
        "effectiveDateTime": "2025-10-16",
        "valueQuantity": {
          "value": 25.0,
          "unit": "mm/hour",
          "system": "http://unitsofmeasure.org",
          "code": "mm/hour"
        },
        "interpretation": [
          {
            "coding": [
              {
                "system": "http://terminology.hl7.org/CodeSystem/v3-ObservationInterpretation",
                "code": "A",
                "display": "Abnormal"
              }
            ]
          }
        ],
        "note": [
          {
            "text": "Definition: https://loinc.org/30341-2/"
          }
        ]
      },
      "request": {
        "method": "POST",
        "url": "Observation"
      }
    },
    {
      "fullUrl": "urn:uuid:22119fe0-8663-4238-be4c-58d6844c38e9",
      "resource": {
        "resourceType": "Observation",
        "id": "22119fe0-8663-4238-be4c-58d6844c38e9",
        "status": "final",
        "category": [
          {
            "coding": [
              {
                "system": "http://terminology.hl7.org/CodeSystem/observation-category",
                "code": "laboratory",
                "display": "Laboratory"
              }
            ],
            "text": "Laboratory"
          }
        ],
        "code": {
          "coding": [
            {
              "system": "http://loinc.org",
              "code": "35648-5",
              "display": "CRP Quint SerPl Qn HS"
            }
          ],
          "text": "C-reactive protein"
        },
        "subject": {
          "reference": "Patient/d7c39134-44a4-4439-a415-085ebabe5146"
        },
        "encounter": {
          "reference": "Encounter/fb7bba16-562b-4cd7-a35b-53ede8810253"
        },
        "effectiveDateTime": "2025-10-16",
        "valueQuantity": {
          "value": 10.0,
          "unit": "mg/L",
          "system": "http://unitsofmeasure.org",
          "code": "mg/L"
        },
        "interpretation": [
          {
            "coding": [
              {
                "system": "http://terminology.hl7.org/CodeSystem/v3-ObservationInterpretation",
                "code": "A",
                "display": "Abnormal"
              }
            ]
          }
        ],
        "note": [
          {
            "text": "Definition: https://loinc.org/35648-5/"
          }
        ]
      },
      "request": {
        "method": "POST",
        "url": "Observation"
      }
    },
    {
      "fullUrl": "urn:uuid:7bf51524-6fbd-4a94-9cd2-fd695072bcd8",
      "resource": {
        "resourceType": "Observation",
        "id": "7bf51524-6fbd-4a94-9cd2-fd695072bcd8",
        "status": "final",
        "category": [
          {
            "coding": [
              {
                "system": "http://terminology.hl7.org/CodeSystem/observation-category",
                "code": "exam",
                "display": "Exam"
              }
            ],
            "text": "Exam"
          }
        ],
        "code": {
          "coding": [
            {
              "system": "http://snomed.info/sct",
              "code": "386661006",
              "display": "Fever"
            }
          ],
          "text": "Fever"
        },
        "subject": {
          "reference": "Patient/d7c39134-44a4-4439-a415-085ebabe5146"
        },
        "encounter": {
          "reference": "Encounter/fb7bba16-562b-4cd7-a35b-53ede8810253"
        },
        "effectivePeriod": {
          "start": "2025-10-16"
        },
        "valueBoolean": true,
        "interpretation": [
          {
            "coding": [
              {
                "system": "http://terminology.hl7.org/CodeSystem/v3-ObservationInterpretation",
                "code": "A",
                "display": "Abnormal"
              }
            ],
            "text": "Abnormal"
          }
        ],
        "note": [
          {
            "text": "Definition: https://snomed.info/id/386661006"
          }
        ]
      },
      "request": {
        "method": "POST",
        "url": "Observation"
      }
    },
    {
      "fullUrl": "urn:uuid:8ad49648-2708-49b6-b939-43b759909ec0",
      "resource": {
        "resourceType": "Observation",
        "id": "8ad49648-2708-49b6-b939-43b759909ec0",
        "status": "final",
        "category": [
          {
            "coding": [
              {
                "system": "http://terminology.hl7.org/CodeSystem/observation-category",
                "code": "exam",
                "display": "Exam"
              }
            ],
            "text": "Exam"
          }
        ],
        "code": {
          "coding": [
            {
              "system": "http://snomed.info/sct",
              "code": "84229001",
              "display": "Fatigue"
            }
          ],
          "text": "Fatigue"
        },
        "subject": {
          "reference": "Patient/d7c39134-44a4-4439-a415-085ebabe5146"
        },
        "encounter": {
          "reference": "Encounter/fb7bba16-562b-4cd7-a35b-53ede8810253"
        },
        "effectivePeriod": {
          "start": "2025-10-16"
        },
        "valueBoolean": true,
        "note": [
          {
            "text": "Definition: https://snomed.info/id/84229001"
          }
        ]
      },
      "request": {
        "method": "POST",
        "url": "Observation"
      }
    },
    {
      "fullUrl": "urn:uuid:a751839f-227b-4369-bfda-b8dbc66bcdbd",
      "resource": {
        "resourceType": "Observation",
        "id": "a751839f-227b-4369-bfda-b8dbc66bcdbd",
        "status": "final",
        "category": [
          {
            "coding": [
              {
                "system": "http://terminology.hl7.org/CodeSystem/observation-category",
                "code": "exam",
                "display": "Exam"
              }
            ],
            "text": "Exam"
          }
        ],
        "code": {
          "coding": [
            {
              "system": "http://snomed.info/sct",
              "code": "82991003",
              "display": "Generalized aches and pains"
            }
          ],
          "text": "Muscle aches"
        },
        "subject": {
          "reference": "Patient/d7c39134-44a4-4439-a415-085ebabe5146"
        },
        "encounter": {
          "reference": "Encounter/fb7bba16-562b-4cd7-a35b-53ede8810253"
        },
        "effectivePeriod": {
          "start": "2025-10-16"
        },
        "valueBoolean": true,
        "note": [
          {
            "text": "Definition: https://snomed.info/id/82991003"
          }
        ]
      },
      "request": {
        "method": "POST",
        "url": "Observation"
      }
    },
    {
      "fullUrl": "urn:uuid:547dd546-be8b-470c-94b5-298142e20125",
      "resource": {
        "resourceType": "Observation",
        "id": "547dd546-be8b-470c-94b5-298142e20125",
        "status": "final",
        "category": [
          {
            "coding": [
              {
                "system": "http://terminology.hl7.org/CodeSystem/observation-category",
                "code": "vital-signs",
                "display": "Vital Signs"
              }
            ],
            "text": "Vital Signs"
          }
        ],
        "code": {
          "coding": [
            {
              "system": "http://loinc.org",
              "code": "8310-5",
              "display": "Body temperature"
            }
          ],
          "text": "temperature"
        },
        "subject": {
          "reference": "Patient/d7c39134-44a4-4439-a415-085ebabe5146"
        },
        "encounter": {
          "reference": "Encounter/fb7bba16-562b-4cd7-a35b-53ede8810253"
        },
        "effectiveDateTime": "2025-10-16",
        "valueQuantity": {
          "value": 37.8,
          "unit": "degrees Celsius",
          "system": "http://unitsofmeasure.org",
          "code": "degrees Celsius"
        },
        "interpretation": [
          {
            "coding": [
              {
                "system": "http://terminology.hl7.org/CodeSystem/v3-ObservationInterpretation",
                "code": "N",
                "display": "Normal"
              }
            ],
            "text": "Normal"
          }
        ]
      },
      "request": {
        "method": "POST",
        "url": "Observation"
      }
    },
    {
      "fullUrl": "urn:uuid:8a60358b-0c16-42e7-84f4-1672f3db2266",
      "resource": {
        "resourceType": "Observation",
        "id": "8a60358b-0c16-42e7-84f4-1672f3db2266",
        "status": "final",
        "category": [
          {
            "coding": [
              {
                "system": "http://terminology.hl7.org/CodeSystem/observation-category",
                "code": "vital-signs",
                "display": "Vital Signs"
              }
            ],
            "text": "Vital Signs"
          }
        ],
        "code": {
          "coding": [
            {
              "system": "http://loinc.org",
              "code": "62733-1",
              "display": "PhenX - respiratory - pulse oximetry - rest protocol 091101"
            }
          ],
          "text": "pulse"
        },
        "subject": {
          "reference": "Patient/d7c39134-44a4-4439-a415-085ebabe5146"
        },
        "encounter": {
          "reference": "Encounter/fb7bba16-562b-4cd7-a35b-53ede8810253"
        },
        "effectiveDateTime": "2025-10-16",
        "valueQuantity": {
          "value": 92.0,
          "unit": "beats per minute",
          "system": "http://unitsofmeasure.org",
          "code": "beats per minute"
        },
        "interpretation": [
          {
            "coding": [
              {
                "system": "http://terminology.hl7.org/CodeSystem/v3-ObservationInterpretation",
                "code": "N",
                "display": "Normal"
              }
            ],
            "text": "Normal"
          }
        ]
      },
      "request": {
        "method": "POST",
        "url": "Observation"
      }
    },
    {
      "fullUrl": "urn:uuid:60c23bc4-156a-4fed-a9e0-a184f9efeb6a",
      "resource": {
        "resourceType": "Observation",
        "id": "60c23bc4-156a-4fed-a9e0-a184f9efeb6a",
        "status": "final",
        "category": [
          {
            "coding": [
              {
                "system": "http://terminology.hl7.org/CodeSystem/observation-category",
                "code": "vital-signs",
                "display": "Vital Signs"
              }
            ],
            "text": "Vital Signs"
          }
        ],
        "code": {
          "coding": [
            {
              "system": "http://loinc.org",
              "code": "18684-1",
              "display": "Blood pressure"
            }
          ],
          "text": "blood pressure"
        },
        "subject": {
          "reference": "Patient/d7c39134-44a4-4439-a415-085ebabe5146"
        },
        "encounter": {
          "reference": "Encounter/fb7bba16-562b-4cd7-a35b-53ede8810253"
        },
        "effectiveDateTime": "2025-10-16",
        "interpretation": [
          {
            "coding": [
              {
                "system": "http://terminology.hl7.org/CodeSystem/v3-ObservationInterpretation",
                "code": "N",
                "display": "Normal"
              }
            ],
            "text": "Normal"
          }
        ]
      },
      "request": {
        "method": "POST",
        "url": "Observation"
      }
    },
    {
      "fullUrl": "urn:uuid:56b71089-7277-49de-bd2b-a9bf1cb87d3d",
      "resource": {
        "resourceType": "Observation",
        "id": "56b71089-7277-49de-bd2b-a9bf1cb87d3d",
        "status": "final",
        "category": [
          {
            "coding": [
              {
                "system": "http://terminology.hl7.org/CodeSystem/observation-category",
                "code": "vital-signs",
                "display": "Vital Signs"
              }
            ],
            "text": "Vital Signs"
          }
        ],
        "code": {
          "coding": [
            {
              "system": "http://loinc.org",
              "code": "9279-1",
              "display": "Resp rate"
            }
          ],
          "text": "respiratory rate"
        },
        "subject": {
          "reference": "Patient/d7c39134-44a4-4439-a415-085ebabe5146"
        },
        "encounter": {
          "reference": "Encounter/fb7bba16-562b-4cd7-a35b-53ede8810253"
        },
        "effectiveDateTime": "2025-10-16",
        "valueQuantity": {
          "value": 18.0,
          "unit": "breaths per minute",
          "system": "http://unitsofmeasure.org",
          "code": "breaths per minute"
        },
        "interpretation": [
          {
            "coding": [
              {
                "system": "http://terminology.hl7.org/CodeSystem/v3-ObservationInterpretation",
                "code": "N",
                "display": "Normal"
              }
            ],
            "text": "Normal"
          }
        ]
      },
      "request": {
        "method": "POST",
        "url": "Observation"
      }
    },
    {
      "fullUrl": "urn:uuid:57d879a6-5dbc-4922-a549-591e53021f1b",
      "resource": {
        "resourceType": "Observation",
        "id": "57d879a6-5dbc-4922-a549-591e53021f1b",
        "status": "final",
        "category": [
          {
            "coding": [
              {
                "system": "http://terminology.hl7.org/CodeSystem/observation-category",
                "code": "vital-signs",
                "display": "Vital Signs"
              }
            ],
            "text": "Vital Signs"
          }
        ],
        "code": {
          "coding": [
            {
              "system": "http://loinc.org",
              "code": "8337-8",
              "display": "Bdy weight special circumstances"
            }
          ],
          "text": "weight"
        },
        "subject": {
          "reference": "Patient/d7c39134-44a4-4439-a415-085ebabe5146"
        },
        "encounter": {
          "reference": "Encounter/fb7bba16-562b-4cd7-a35b-53ede8810253"
        },
        "effectiveDateTime": "2025-10-16",
        "valueQuantity": {
          "value": 60.0,
          "unit": "kilograms",
          "system": "http://unitsofmeasure.org",
          "code": "kilograms"
        },
        "interpretation": [
          {
            "coding": [
              {
                "system": "http://terminology.hl7.org/CodeSystem/v3-ObservationInterpretation",
                "code": "N",
                "display": "Normal"
              }
            ],
            "text": "Normal"
          }
        ]
      },
      "request": {
        "method": "POST",
        "url": "Observation"
      }
    },
    {
      "fullUrl": "urn:uuid:a467dd23-8025-4c69-9134-3baf7c553627",
      "resource": {
        "resourceType": "Observation",
        "id": "a467dd23-8025-4c69-9134-3baf7c553627",
        "status": "final",
        "category": [
          {
            "coding": [
              {
                "system": "http://terminology.hl7.org/CodeSystem/observation-category",
                "code": "vital-signs",
                "display": "Vital Signs"
              }
            ],
            "text": "Vital Signs"
          }
        ],
        "code": {
          "coding": [
            {
              "system": "http://loinc.org",
              "code": "92998-4",
              "display": "Lower segment"
            }
          ],
          "text": "height"
        },
        "subject": {
          "reference": "Patient/d7c39134-44a4-4439-a415-085ebabe5146"
        },
        "encounter": {
          "reference": "Encounter/fb7bba16-562b-4cd7-a35b-53ede8810253"
        },
        "effectiveDateTime": "2025-10-16",
        "valueQuantity": {
          "value": 165.0,
          "unit": "centimeters",
          "system": "http://unitsofmeasure.org",
          "code": "centimeters"
        },
        "interpretation": [
          {
            "coding": [
              {
                "system": "http://terminology.hl7.org/CodeSystem/v3-ObservationInterpretation",
                "code": "N",
                "display": "Normal"
              }
            ],
            "text": "Normal"
          }
        ]
      },
      "request": {
        "method": "POST",
        "url": "Observation"
      }
    },
    {
      "fullUrl": "urn:uuid:834257a9-a5c0-462c-9cf4-2788d6025487",
      "resource": {
        "resourceType": "Observation",
        "id": "834257a9-a5c0-462c-9cf4-2788d6025487",
        "status": "final",
        "category": [
          {
            "coding": [
              {
                "system": "http://terminology.hl7.org/CodeSystem/observation-category",
                "code": "vital-signs",
                "display": "Vital Signs"
              }
            ],
            "text": "Vital Signs"
          }
        ],
        "code": {
          "coding": [
            {
              "system": "http://loinc.org",
              "code": "2717-7",
              "display": "OxyHgb MFr Plas"
            }
          ],
          "text": "oxygen saturation"
        },
        "subject": {
          "reference": "Patient/d7c39134-44a4-4439-a415-085ebabe5146"
        },
        "encounter": {
          "reference": "Encounter/fb7bba16-562b-4cd7-a35b-53ede8810253"
        },
        "effectiveDateTime": "2025-10-16",
        "valueQuantity": {
          "value": 98.0,
          "unit": "%",
          "system": "http://unitsofmeasure.org",
          "code": "%"
        },
        "interpretation": [
          {
            "coding": [
              {
                "system": "http://terminology.hl7.org/CodeSystem/v3-ObservationInterpretation",
                "code": "N",
                "display": "Normal"
              }
            ],
            "text": "Normal"
          }
        ]
      },
      "request": {
        "method": "POST",
        "url": "Observation"
      }
    },
    {
      "fullUrl": "urn:uuid:69f682b1-23fc-4699-96a5-9f1c20284a74",
      "resource": {
        "resourceType": "MedicationStatement",
        "id": "69f682b1-23fc-4699-96a5-9f1c20284a74",
        "status": "recorded",
        "medication": {
          "concept": {
            "coding": [
              {
                "system": "http://snomed.info/sct",
                "code": "387517004",
                "display": "Acetaminophen"
              }
            ],
            "text": "Acetaminophen"
          }
        },
        "subject": {
          "reference": "Patient/d7c39134-44a4-4439-a415-085ebabe5146"
        },
        "encounter": {
          "reference": "Encounter/fb7bba16-562b-4cd7-a35b-53ede8810253"
        },
        "effectiveDateTime": "2025-10-16",
        "informationSource": [
          {
            "reference": "Patient/d7c39134-44a4-4439-a415-085ebabe5146"
          }
        ],
        "dosage": [
          {
            "text": "intermittently for fever management"
          }
        ],
        "adherence": {
          "code": {
            "coding": [
              {
                "system": "http://hl7.org/fhir/CodeSystem/medication-statement-adherence",
                "code": "taking-not-as-directed",
                "display": "Taking Not As Directed"
              }
            ]
          }
        }
      },
      "request": {
        "method": "POST",
        "url": "MedicationStatement"
      }
    },
    {
      "fullUrl": "urn:uuid:1f94035e-dc10-4cd1-ac1a-4ab6ddbff5ac",
      "resource": {
        "resourceType": "Encounter",
        "id": "1f94035e-dc10-4cd1-ac1a-4ab6ddbff5ac",
        "identifier": [
          {
            "use": "temp",
            "value": "Encounter_Emily Wilson_20251023095419"
          }
        ],
        "status": "completed",
        "priority": {
          "coding": [
            {
              "system": "http://snomed.info/sct",
              "code": "17621005",
              "display": "Normal"
            }
          ]
        },
        "type": [
          {
            "coding": [
              {
                "system": "http://snomed.info/sct",
                "code": "11429006",
                "display": "Consultation"
              }
            ]
          }
        ],
        "subject": {
          "reference": "Patient/d7c39134-44a4-4439-a415-085ebabe5146",
          "display": "Emily Wilson"
        }
      },
      "request": {
        "method": "POST",
        "url": "Encounter"
      }
    },
    {
      "fullUrl": "urn:uuid:37a99f91-d260-4b83-b086-263fc49f3fdd",
      "resource": {
        "resourceType": "Observation",
        "id": "37a99f91-d260-4b83-b086-263fc49f3fdd",
        "status": "final",
        "category": [
          {
            "coding": [
              {
                "system": "http://terminology.hl7.org/CodeSystem/observation-category",
                "code": "vital-signs",
                "display": "Vital Signs"
              }
            ],
            "text": "Vital Signs"
          }
        ],
        "code": {
          "coding": [
            {
              "system": "http://loinc.org",
              "code": "8310-5",
              "display": "Body temperature"
            }
          ],
          "text": "temperature"
        },
        "subject": {
          "reference": "Patient/d7c39134-44a4-4439-a415-085ebabe5146"
        },
        "encounter": {
          "reference": "Encounter/1f94035e-dc10-4cd1-ac1a-4ab6ddbff5ac"
        },
        "effectiveDateTime": "2025-08-16",
        "interpretation": [
          {
            "coding": [
              {
                "system": "http://terminology.hl7.org/CodeSystem/v3-ObservationInterpretation",
                "code": "N",
                "display": "Normal"
              }
            ],
            "text": "Normal"
          }
        ]
      },
      "request": {
        "method": "POST",
        "url": "Observation"
      }
    },
    {
      "fullUrl": "urn:uuid:35415a7a-158e-4ad6-8c42-651e8487f8f1",
      "resource": {
        "resourceType": "Observation",
        "id": "35415a7a-158e-4ad6-8c42-651e8487f8f1",
        "status": "final",
        "category": [
          {
            "coding": [
              {
                "system": "http://terminology.hl7.org/CodeSystem/observation-category",
                "code": "vital-signs",
                "display": "Vital Signs"
              }
            ],
            "text": "Vital Signs"
          }
        ],
        "code": {
          "coding": [
            {
              "system": "http://loinc.org",
              "code": "62733-1",
              "display": "PhenX - respiratory - pulse oximetry - rest protocol 091101"
            }
          ],
          "text": "pulse"
        },
        "subject": {
          "reference": "Patient/d7c39134-44a4-4439-a415-085ebabe5146"
        },
        "encounter": {
          "reference": "Encounter/1f94035e-dc10-4cd1-ac1a-4ab6ddbff5ac"
        },
        "effectiveDateTime": "2025-08-16",
        "interpretation": [
          {
            "coding": [
              {
                "system": "http://terminology.hl7.org/CodeSystem/v3-ObservationInterpretation",
                "code": "N",
                "display": "Normal"
              }
            ],
            "text": "Normal"
          }
        ]
      },
      "request": {
        "method": "POST",
        "url": "Observation"
      }
    },
    {
      "fullUrl": "urn:uuid:8bc1d620-7392-4ef7-95f2-a4bcd173ec95",
      "resource": {
        "resourceType": "Observation",
        "id": "8bc1d620-7392-4ef7-95f2-a4bcd173ec95",
        "status": "final",
        "category": [
          {
            "coding": [
              {
                "system": "http://terminology.hl7.org/CodeSystem/observation-category",
                "code": "vital-signs",
                "display": "Vital Signs"
              }
            ],
            "text": "Vital Signs"
          }
        ],
        "code": {
          "coding": [
            {
              "system": "http://loinc.org",
              "code": "18684-1",
              "display": "Blood pressure"
            }
          ],
          "text": "blood pressure"
        },
        "subject": {
          "reference": "Patient/d7c39134-44a4-4439-a415-085ebabe5146"
        },
        "encounter": {
          "reference": "Encounter/1f94035e-dc10-4cd1-ac1a-4ab6ddbff5ac"
        },
        "effectiveDateTime": "2025-08-16",
        "interpretation": [
          {
            "coding": [
              {
                "system": "http://terminology.hl7.org/CodeSystem/v3-ObservationInterpretation",
                "code": "N",
                "display": "Normal"
              }
            ],
            "text": "Normal"
          }
        ]
      },
      "request": {
        "method": "POST",
        "url": "Observation"
      }
    },
    {
      "fullUrl": "urn:uuid:5f18f97a-07e9-4fd8-82ec-6e9625894ea7",
      "resource": {
        "resourceType": "Observation",
        "id": "5f18f97a-07e9-4fd8-82ec-6e9625894ea7",
        "status": "final",
        "category": [
          {
            "coding": [
              {
                "system": "http://terminology.hl7.org/CodeSystem/observation-category",
                "code": "vital-signs",
                "display": "Vital Signs"
              }
            ],
            "text": "Vital Signs"
          }
        ],
        "code": {
          "coding": [
            {
              "system": "http://loinc.org",
              "code": "9279-1",
              "display": "Resp rate"
            }
          ],
          "text": "respiratory rate"
        },
        "subject": {
          "reference": "Patient/d7c39134-44a4-4439-a415-085ebabe5146"
        },
        "encounter": {
          "reference": "Encounter/1f94035e-dc10-4cd1-ac1a-4ab6ddbff5ac"
        },
        "effectiveDateTime": "2025-08-16",
        "interpretation": [
          {
            "coding": [
              {
                "system": "http://terminology.hl7.org/CodeSystem/v3-ObservationInterpretation",
                "code": "N",
                "display": "Normal"
              }
            ],
            "text": "Normal"
          }
        ]
      },
      "request": {
        "method": "POST",
        "url": "Observation"
      }
    },
    {
      "fullUrl": "urn:uuid:41a7c3cd-cc8a-4c83-9015-d2ecd565d2a1",
      "resource": {
        "resourceType": "Observation",
        "id": "41a7c3cd-cc8a-4c83-9015-d2ecd565d2a1",
        "status": "final",
        "category": [
          {
            "coding": [
              {
                "system": "http://terminology.hl7.org/CodeSystem/observation-category",
                "code": "vital-signs",
                "display": "Vital Signs"
              }
            ],
            "text": "Vital Signs"
          }
        ],
        "code": {
          "coding": [
            {
              "system": "http://loinc.org",
              "code": "8337-8",
              "display": "Bdy weight special circumstances"
            }
          ],
          "text": "weight"
        },
        "subject": {
          "reference": "Patient/d7c39134-44a4-4439-a415-085ebabe5146"
        },
        "encounter": {
          "reference": "Encounter/1f94035e-dc10-4cd1-ac1a-4ab6ddbff5ac"
        },
        "effectiveDateTime": "2025-08-16",
        "interpretation": [
          {
            "coding": [
              {
                "system": "http://terminology.hl7.org/CodeSystem/v3-ObservationInterpretation",
                "code": "N",
                "display": "Normal"
              }
            ],
            "text": "Normal"
          }
        ]
      },
      "request": {
        "method": "POST",
        "url": "Observation"
      }
    },
    {
      "fullUrl": "urn:uuid:32221c7f-de14-4ff6-ae1f-c95dd02c68d1",
      "resource": {
        "resourceType": "Observation",
        "id": "32221c7f-de14-4ff6-ae1f-c95dd02c68d1",
        "status": "final",
        "category": [
          {
            "coding": [
              {
                "system": "http://terminology.hl7.org/CodeSystem/observation-category",
                "code": "vital-signs",
                "display": "Vital Signs"
              }
            ],
            "text": "Vital Signs"
          }
        ],
        "code": {
          "coding": [
            {
              "system": "http://loinc.org",
              "code": "92998-4",
              "display": "Lower segment"
            }
          ],
          "text": "height"
        },
        "subject": {
          "reference": "Patient/d7c39134-44a4-4439-a415-085ebabe5146"
        },
        "encounter": {
          "reference": "Encounter/1f94035e-dc10-4cd1-ac1a-4ab6ddbff5ac"
        },
        "effectiveDateTime": "2025-08-16",
        "interpretation": [
          {
            "coding": [
              {
                "system": "http://terminology.hl7.org/CodeSystem/v3-ObservationInterpretation",
                "code": "N",
                "display": "Normal"
              }
            ],
            "text": "Normal"
          }
        ]
      },
      "request": {
        "method": "POST",
        "url": "Observation"
      }
    },
    {
      "fullUrl": "urn:uuid:6c111801-c09e-48fd-a411-ff232ed8d514",
      "resource": {
        "resourceType": "Observation",
        "id": "6c111801-c09e-48fd-a411-ff232ed8d514",
        "status": "final",
        "category": [
          {
            "coding": [
              {
                "system": "http://terminology.hl7.org/CodeSystem/observation-category",
                "code": "vital-signs",
                "display": "Vital Signs"
              }
            ],
            "text": "Vital Signs"
          }
        ],
        "code": {
          "coding": [
            {
              "system": "http://loinc.org",
              "code": "2717-7",
              "display": "OxyHgb MFr Plas"
            }
          ],
          "text": "oxygen saturation"
        },
        "subject": {
          "reference": "Patient/d7c39134-44a4-4439-a415-085ebabe5146"
        },
        "encounter": {
          "reference": "Encounter/1f94035e-dc10-4cd1-ac1a-4ab6ddbff5ac"
        },
        "effectiveDateTime": "2025-08-16",
        "interpretation": [
          {
            "coding": [
              {
                "system": "http://terminology.hl7.org/CodeSystem/v3-ObservationInterpretation",
                "code": "N",
                "display": "Normal"
              }
            ],
            "text": "Normal"
          }
        ]
      },
      "request": {
        "method": "POST",
        "url": "Observation"
      }
    },
    {
      "fullUrl": "urn:uuid:4cbe3f35-5aa6-478e-bfc2-98e73ad9170c",
      "resource": {
        "resourceType": "List",
        "id": "4cbe3f35-5aa6-478e-bfc2-98e73ad9170c",
        "contained": [
          {
            "resourceType": "FamilyMemberHistory",
            "id": "fmh-2",
            "status": "completed",
            "patient": {
              "reference": "Patient/d7c39134-44a4-4439-a415-085ebabe5146"
            },
            "relationship": {
              "coding": [
                {
                  "system": "http://snomed.info/sct",
                  "code": "66839005",
                  "display": "Father"
                }
              ]
            },
            "deceasedBoolean": false,
            "condition": [
              {
                "code": {
                  "coding": [
                    {
                      "system": "http://snomed.info/sct",
                      "code": "38341003",
                      "display": "Hypertensive disorder"
                    }
                  ]
                }
              }
            ]
          }
        ],
        "status": "current",
        "mode": "snapshot",
        "code": {
          "coding": [
            {
              "system": "http://loinc.org",
              "code": "8670-2",
              "display": "History of family member diseases"
            }
          ]
        },
        "subject": [
          {
            "reference": "Patient/d7c39134-44a4-4439-a415-085ebabe5146"
          }
        ],
        "note": [
          {
            "text": "Both parents are alive and reportedly healthy otherwise"
          }
        ],
        "entry": [
          {
            "item": {
              "reference": "#fmh-2"
            }
          }
        ]
      },
      "request": {
        "method": "POST",
        "url": "FamilyMemberHistory"
      }
    }
  ]
}