{
  "resourceType": "Bundle",
  "type": "transaction",
  "entry": [
    {
      "fullUrl": "urn:uuid:f99b618d-50a7-46b4-accc-bc15b702c484",
      "resource": {
        "resourceType": "Patient",
        "id": "f99b618d-50a7-46b4-accc-bc15b702c484",
        "name": [
          {
            "family": "Wilson",
            "given": [
              "Emily"
            ]
          }
        ],
        "gender": "female",
        "birthDate": "1993-01-01",
        "address": [
          {}
        ]
      },
      "request": {
        "method": "POST",
        "url": "Patient"
      }
    },
    {
      "fullUrl": "urn:uuid:5a23a781-ac02-4db2-abf2-e70fb4864692",
      "resource": {
        "resourceType": "Encounter",
        "id": "5a23a781-ac02-4db2-abf2-e70fb4864692",
        "identifier": [
          {
            "use": "temp",
            "value": "Encounter_Emily Wilson_20251023095341"
          }
        ],
        "status": "completed",
        "priority": {
          "coding": [
            {
              "system": "http://snomed.info/sct",
              "code": "17621005",
              "display": "Normal"
            }
          ]
        },
        "type": [
          {
            "coding": [
              {
                "system": "http://snomed.info/sct",
                "code": "11429006",
                "display": "Consultation"
              }
            ]
          }
        ],
        "subject": {
          "reference": "Patient/f99b618d-50a7-46b4-accc-bc15b702c484",
          "display": "Emily Wilson"
        },
        "reason": [
          {
            "value": [
              {
                "concept": {
                  "text": "intermittent fever, general malaise and fatigue"
                }
              }
            ]
          }
        ]
      },
      "request": {
        "method": "POST",
        "url": "Encounter"
      }
    },
    {
      "fullUrl": "urn:uuid:d1f0d457-9dd2-47a4-b634-04d6a7b61f6c",
      "resource": {
        "resourceType": "Observation",
        "id": "d1f0d457-9dd2-47a4-b634-04d6a7b61f6c",
        "status": "final",
        "category": [
          {
            "coding": [
              {
                "system": "http://terminology.hl7.org/CodeSystem/observation-category",
                "code": "laboratory",
                "display": "Laboratory"
              }
            ],
            "text": "Laboratory"
          }
        ],
        "code": {
          "coding": [
            {
              "system": "http://loinc.org",
              "code": "26464-8",
              "display": "WBC # Bld"
            }
          ],
          "text": "White Blood Cell Count"
        },
        "subject": {
          "reference": "Patient/f99b618d-50a7-46b4-accc-bc15b702c484"
        },
        "encounter": {
          "reference": "Encounter/5a23a781-ac02-4db2-abf2-e70fb4864692"
        },
        "effectiveDateTime": "2025-10-16",
        "valueQuantity": {
          "value": 12000.0,
          "unit": "cells per microliter",
          "system": "http://unitsofmeasure.org",
          "code": "cells per microliter"
        },
        "interpretation": [
          {
            "coding": [
              {
                "system": "http://terminology.hl7.org/CodeSystem/v3-ObservationInterpretation",
                "code": "A",
                "display": "Abnormal"
              }
            ]
          }
        ],
        "note": [
          {
            "text": "Definition: https://loinc.org/26464-8/"
          }
        ]
      },
      "request": {
        "method": "POST",
        "url": "Observation"
      }
    },
    {
      "fullUrl": "urn:uuid:ca63c0d7-6ad7-46a3-a94f-788c1c3e6ac9",
      "resource": {
        "resourceType": "Observation",
        "id": "ca63c0d7-6ad7-46a3-a94f-788c1c3e6ac9",
        "status": "final",
        "category": [
          {
            "coding": [
              {
                "system": "http://terminology.hl7.org/CodeSystem/observation-category",
                "code": "laboratory",
                "display": "Laboratory"
              }
            ],
            "text": "Laboratory"
          }
        ],
        "code": {
          "coding": [
            {
              "system": "http://loinc.org",
              "code": "30341-2",
              "display": "Erythrocyte Sed Rat Bld"
            }
          ],
          "text": "Erythrocyte Sedimentation Rate"
        },
        "subject": {
          "reference": "Patient/f99b618d-50a7-46b4-accc-bc15b702c484"
        },
        "encounter": {
          "reference": "Encounter/5a23a781-ac02-4db2-abf2-e70fb4864692"
        },
        "effectiveDateTime": "2025-10-16",
        "valueQuantity": {
          "value": 40.0,
          "unit": "mm per hour",
          "system": "http://unitsofmeasure.org",
          "code": "mm per hour"
        },
        "interpretation": [
          {
            "coding": [
              {
                "system": "http://terminology.hl7.org/CodeSystem/v3-ObservationInterpretation",
                "code": "A",
                "display": "Abnormal"
              }
            ]
          }
        ],
        "note": [
          {
            "text": "Definition: https://loinc.org/30341-2/"
          }
        ]
      },
      "request": {
        "method": "POST",
        "url": "Observation"
      }
    },
    {
      "fullUrl": "urn:uuid:1c9f2103-c283-49aa-9997-0b76db452eb9",
      "resource": {
        "resourceType": "Observation",
        "id": "1c9f2103-c283-49aa-9997-0b76db452eb9",
        "status": "final",
        "category": [
          {
            "coding": [
              {
                "system": "http://terminology.hl7.org/CodeSystem/observation-category",
                "code": "exam",
                "display": "Exam"
              }
            ],
            "text": "Exam"
          }
        ],
        "code": {
          "coding": [
            {
              "system": "http://snomed.info/sct",
              "code": "386661006",
              "display": "Fever"
            }
          ],
          "text": "Fever"
        },
        "subject": {
          "reference": "Patient/f99b618d-50a7-46b4-accc-bc15b702c484"
        },
        "encounter": {
          "reference": "Encounter/5a23a781-ac02-4db2-abf2-e70fb4864692"
        },
        "effectivePeriod": {
          "start": "2025-10-16"
        },
        "valueBoolean": true,
        "interpretation": [
          {
            "coding": [
              {
                "system": "http://terminology.hl7.org/CodeSystem/v3-ObservationInterpretation",
                "code": "A",
                "display": "Abnormal"
              }
            ],
            "text": "Abnormal"
          }
        ],
        "note": [
          {
            "text": "Definition: https://snomed.info/id/386661006"
          }
        ]
      },
      "request": {
        "method": "POST",
        "url": "Observation"
      }
    },
    {
      "fullUrl": "urn:uuid:e9aae595-850b-4546-9807-f2ffd1fe8e72",
      "resource": {
        "resourceType": "Observation",
        "id": "e9aae595-850b-4546-9807-f2ffd1fe8e72",
        "status": "final",
        "category": [
          {
            "coding": [
              {
                "system": "http://terminology.hl7.org/CodeSystem/observation-category",
                "code": "exam",
                "display": "Exam"
              }
            ],
            "text": "Exam"
          }
        ],
        "code": {
          "coding": [
            {
              "system": "http://snomed.info/sct",
              "code": "367391008",
              "display": "Malaise"
            }
          ],
          "text": "General Malaise"
        },
        "subject": {
          "reference": "Patient/f99b618d-50a7-46b4-accc-bc15b702c484"
        },
        "encounter": {
          "reference": "Encounter/5a23a781-ac02-4db2-abf2-e70fb4864692"
        },
        "effectivePeriod": {
          "start": "2025-10-16"
        },
        "valueBoolean": true,
        "note": [
          {
            "text": "Definition: https://snomed.info/id/367391008"
          }
        ]
      },
      "request": {
        "method": "POST",
        "url": "Observation"
      }
    },
    {
      "fullUrl": "urn:uuid:e876e48c-42c4-439d-b910-675efb0f997b",
      "resource": {
        "resourceType": "Observation",
        "id": "e876e48c-42c4-439d-b910-675efb0f997b",
        "status": "final",
        "category": [
          {
            "coding": [
              {
                "system": "http://terminology.hl7.org/CodeSystem/observation-category",
                "code": "exam",
                "display": "Exam"
              }
            ],
            "text": "Exam"
          }
        ],
        "code": {
          "coding": [
            {
              "system": "http://snomed.info/sct",
              "code": "84229001",
              "display": "Fatigue"
            }
          ],
          "text": "Fatigue"
        },
        "subject": {
          "reference": "Patient/f99b618d-50a7-46b4-accc-bc15b702c484"
        },
        "encounter": {
          "reference": "Encounter/5a23a781-ac02-4db2-abf2-e70fb4864692"
        },
        "effectivePeriod": {
          "start": "2025-10-16"
        },
        "valueBoolean": true,
        "note": [
          {
            "text": "Definition: https://snomed.info/id/84229001"
          }
        ]
      },
      "request": {
        "method": "POST",
        "url": "Observation"
      }
    },
    {
      "fullUrl": "urn:uuid:ec10e5a4-5ca4-48d1-a8ba-21451830c661",
      "resource": {
        "resourceType": "Observation",
        "id": "ec10e5a4-5ca4-48d1-a8ba-21451830c661",
        "status": "final",
        "category": [
          {
            "coding": [
              {
                "system": "http://terminology.hl7.org/CodeSystem/observation-category",
                "code": "exam",
                "display": "Exam"
              }
            ],
            "text": "Exam"
          }
        ],
        "code": {
          "coding": [
            {
              "system": "http://snomed.info/sct",
              "code": "57676002",
              "display": "Joint pain"
            }
          ],
          "text": "Joint Pain"
        },
        "subject": {
          "reference": "Patient/f99b618d-50a7-46b4-accc-bc15b702c484"
        },
        "encounter": {
          "reference": "Encounter/5a23a781-ac02-4db2-abf2-e70fb4864692"
        },
        "effectivePeriod": {
          "start": "2025-10-16"
        },
        "valueBoolean": true,
        "note": [
          {
            "text": "Definition: https://snomed.info/id/57676002"
          }
        ]
      },
      "request": {
        "method": "POST",
        "url": "Observation"
      }
    },
    {
      "fullUrl": "urn:uuid:73006a92-dfcf-4236-9364-1347b5c567e5",
      "resource": {
        "resourceType": "Observation",
        "id": "73006a92-dfcf-4236-9364-1347b5c567e5",
        "status": "final",
        "category": [
          {
            "coding": [
              {
                "system": "http://terminology.hl7.org/CodeSystem/observation-category",
                "code": "exam",
                "display": "Exam"
              }
            ],
            "text": "Exam"
          }
        ],
        "code": {
          "coding": [
            {
              "system": "http://snomed.info/sct",
              "code": "89757007",
              "display": "Macular rash"
            }
          ],
          "text": "Rash"
        },
        "subject": {
          "reference": "Patient/f99b618d-50a7-46b4-accc-bc15b702c484"
        },
        "encounter": {
          "reference": "Encounter/5a23a781-ac02-4db2-abf2-e70fb4864692"
        },
        "effectivePeriod": {
          "start": "2025-10-16"
        },
        "valueBoolean": true,
        "note": [
          {
            "text": "Definition: https://snomed.info/id/89757007"
          }
        ]
      },
      "request": {
        "method": "POST",
        "url": "Observation"
      }
    },
    {
      "fullUrl": "urn:uuid:e4f0efe5-50c6-4bf3-864b-02fd260cd1d8",
      "resource": {
        "resourceType": "Observation",
        "id": "e4f0efe5-50c6-4bf3-864b-02fd260cd1d8",
        "status": "final",
        "category": [
          {
            "coding": [
              {
                "system": "http://terminology.hl7.org/CodeSystem/observation-category",
                "code": "vital-signs",
                "display": "Vital Signs"
              }
            ],
            "text": "Vital Signs"
          }
        ],
        "code": {
          "coding": [
            {
              "system": "http://loinc.org",
              "code": "8310-5",
              "display": "Body temperature"
            }
          ],
          "text": "temperature"
        },
        "subject": {
          "reference": "Patient/f99b618d-50a7-46b4-accc-bc15b702c484"
        },
        "encounter": {
          "reference": "Encounter/5a23a781-ac02-4db2-abf2-e70fb4864692"
        },
        "effectiveDateTime": "2025-10-16",
        "valueQuantity": {
          "value": 100.2,
          "unit": "degrees Fahrenheit",
          "system": "http://unitsofmeasure.org",
          "code": "degrees Fahrenheit"
        },
        "interpretation": [
          {
            "coding": [
              {
                "system": "http://terminology.hl7.org/CodeSystem/v3-ObservationInterpretation",
                "code": "A",
                "display": "Abnormal"
              }
            ],
            "text": "Abnormal"
          }
        ]
      },
      "request": {
        "method": "POST",
        "url": "Observation"
      }
    },
    {
      "fullUrl": "urn:uuid:8304de77-2d29-4935-b329-417563e0e63b",
      "resource": {
        "resourceType": "Observation",
        "id": "8304de77-2d29-4935-b329-417563e0e63b",
        "status": "final",
        "category": [
          {
            "coding": [
              {
                "system": "http://terminology.hl7.org/CodeSystem/observation-category",
                "code": "vital-signs",
                "display": "Vital Signs"
              }
            ],
            "text": "Vital Signs"
          }
        ],
        "code": {
          "coding": [
            {
              "system": "http://loinc.org",
              "code": "62733-1",
              "display": "PhenX - respiratory - pulse oximetry - rest protocol 091101"
            }
          ],
          "text": "pulse"
        },
        "subject": {
          "reference": "Patient/f99b618d-50a7-46b4-accc-bc15b702c484"
        },
        "encounter": {
          "reference": "Encounter/5a23a781-ac02-4db2-abf2-e70fb4864692"
        },
        "effectiveDateTime": "2025-10-16",
        "valueQuantity": {
          "value": 92.0,
          "unit": "beats per minute",
          "system": "http://unitsofmeasure.org",
          "code": "beats per minute"
        }
      },
      "request": {
        "method": "POST",
        "url": "Observation"
      }
    },
    {
      "fullUrl": "urn:uuid:41f996fa-4062-467e-ad00-9969928aa0db",
      "resource": {
        "resourceType": "Observation",
        "id": "41f996fa-4062-467e-ad00-9969928aa0db",
        "status": "final",
        "category": [
          {
            "coding": [
              {
                "system": "http://terminology.hl7.org/CodeSystem/observation-category",
                "code": "vital-signs",
                "display": "Vital Signs"
              }
            ],
            "text": "Vital Signs"
          }
        ],
        "code": {
          "coding": [
            {
              "system": "http://loinc.org",
              "code": "18684-1",
              "display": "Blood pressure"
            }
          ],
          "text": "blood pressure"
        },
        "subject": {
          "reference": "Patient/f99b618d-50a7-46b4-accc-bc15b702c484"
        },
        "encounter": {
          "reference": "Encounter/5a23a781-ac02-4db2-abf2-e70fb4864692"
        },
        "effectiveDateTime": "2025-10-16"
      },
      "request": {
        "method": "POST",
        "url": "Observation"
      }
    },
    {
      "fullUrl": "urn:uuid:d3dc3b12-7be6-4f59-865a-3dc80003639a",
      "resource": {
        "resourceType": "Observation",
        "id": "d3dc3b12-7be6-4f59-865a-3dc80003639a",
        "status": "final",
        "category": [
          {
            "coding": [
              {
                "system": "http://terminology.hl7.org/CodeSystem/observation-category",
                "code": "vital-signs",
                "display": "Vital Signs"
              }
            ],
            "text": "Vital Signs"
          }
        ],
        "code": {
          "coding": [
            {
              "system": "http://loinc.org",
              "code": "9279-1",
              "display": "Resp rate"
            }
          ],
          "text": "respiratory rate"
        },
        "subject": {
          "reference": "Patient/f99b618d-50a7-46b4-accc-bc15b702c484"
        },
        "encounter": {
          "reference": "Encounter/5a23a781-ac02-4db2-abf2-e70fb4864692"
        },
        "effectiveDateTime": "2025-10-16",
        "valueQuantity": {
          "value": 18.0,
          "unit": "breaths per minute",
          "system": "http://unitsofmeasure.org",
          "code": "breaths per minute"
        }
      },
      "request": {
        "method": "POST",
        "url": "Observation"
      }
    },
    {
      "fullUrl": "urn:uuid:cc594d5d-f54e-48fc-87e7-0d9409d1969b",
      "resource": {
        "resourceType": "Observation",
        "id": "cc594d5d-f54e-48fc-87e7-0d9409d1969b",
        "status": "final",
        "category": [
          {
            "coding": [
              {
                "system": "http://terminology.hl7.org/CodeSystem/observation-category",
                "code": "vital-signs",
                "display": "Vital Signs"
              }
            ],
            "text": "Vital Signs"
          }
        ],
        "code": {
          "coding": [
            {
              "system": "http://loinc.org",
              "code": "2717-7",
              "display": "OxyHgb MFr Plas"
            }
          ],
          "text": "oxygen saturation"
        },
        "subject": {
          "reference": "Patient/f99b618d-50a7-46b4-accc-bc15b702c484"
        },
        "encounter": {
          "reference": "Encounter/5a23a781-ac02-4db2-abf2-e70fb4864692"
        },
        "effectiveDateTime": "2025-10-16",
        "valueQuantity": {
          "value": 98.0,
          "unit": "%",
          "system": "http://unitsofmeasure.org",
          "code": "%"
        },
        "interpretation": [
          {
            "coding": [
              {
                "system": "http://terminology.hl7.org/CodeSystem/v3-ObservationInterpretation",
                "code": "N",
                "display": "Normal"
              }
            ],
            "text": "Normal"
          }
        ]
      },
      "request": {
        "method": "POST",
        "url": "Observation"
      }
    },
    {
      "fullUrl": "urn:uuid:4fa114ce-b685-4504-9baf-56a68a91a619",
      "resource": {
        "resourceType": "MedicationStatement",
        "id": "4fa114ce-b685-4504-9baf-56a68a91a619",
        "status": "recorded",
        "medication": {
          "concept": {
            "coding": [
              {
                "system": "http://snomed.info/sct",
                "code": "387517004",
                "display": "Acetaminophen"
              }
            ],
            "text": "Acetaminophen"
          }
        },
        "subject": {
          "reference": "Patient/f99b618d-50a7-46b4-accc-bc15b702c484"
        },
        "encounter": {
          "reference": "Encounter/5a23a781-ac02-4db2-abf2-e70fb4864692"
        },
        "effectiveDateTime": "2025-10-16",
        "informationSource": [
          {
            "reference": "Patient/f99b618d-50a7-46b4-accc-bc15b702c484"
          }
        ],
        "dosage": [
          {
            "text": "650 milligrams every six hours as needed",
            "timing": {
              "repeat": {
                "frequency": 1,
                "period": 6.0,
                "periodUnit": "h"
              }
            }
          }
        ]
      },
      "request": {
        "method": "POST",
        "url": "MedicationStatement"
      }
    },
    {
      "fullUrl": "urn:uuid:e5ce54f9-38de-4d47-83ef-f1f38d4de95b",
      "resource": {
        "resourceType": "Encounter",
        "id": "e5ce54f9-38de-4d47-83ef-f1f38d4de95b",
        "identifier": [
          {
            "use": "temp",
            "value": "Encounter_Emily Wilson_20251023095354"
          }
        ],
        "status": "completed",
        "priority": {
          "coding": [
            {
              "system": "http://snomed.info/sct",
              "code": "17621005",
              "display": "Normal"
            }
          ]
        },
        "type": [
          {
            "coding": [
              {
                "system": "http://snomed.info/sct",
                "code": "11429006",
                "display": "Consultation"
              }
            ]
          }
        ],
        "subject": {
          "reference": "Patient/f99b618d-50a7-46b4-accc-bc15b702c484",
          "display": "Emily Wilson"
        },
        "reason": [
          {
            "value": [
              {
                "concept": {
                  "text": "viral upper respiratory infection"
                }
              }
            ]
          }
        ]
      },
      "request": {
        "method": "POST",
        "url": "Encounter"
      }
    },
    {
      "fullUrl": "urn:uuid:0cf8c0a6-8bf8-4064-a5a6-1c1c87748318",
      "resource": {
        "resourceType": "Encounter",
        "id": "0cf8c0a6-8bf8-4064-a5a6-1c1c87748318",
        "identifier": [
          {
            "use": "temp",
            "value": "Encounter_Emily Wilson_20251023095354"
          }
        ],
        "status": "completed",
        "priority": {
          "coding": [
            {
              "system": "http://snomed.info/sct",
              "code": "17621005",
              "display": "Normal"
            }
          ]
        },
        "type": [
          {
            "coding": [
              {
                "system": "http://snomed.info/sct",
                "code": "11429006",
                "display": "Consultation"
              }
            ]
          }
        ],
        "subject": {
          "reference": "Patient/f99b618d-50a7-46b4-accc-bc15b702c484",
          "display": "Emily Wilson"
        },
        "reason": [
          {
            "value": [
              {
                "concept": {
                  "text": "routine annual examination"
                }
              }
            ]
          }
        ]
      },
      "request": {
        "method": "POST",
        "url": "Encounter"
      }
    },
    {
      "fullUrl": "urn:uuid:d0394531-e7f6-4348-8cf4-0f0d9f8eee68",
      "resource": {
        "resourceType": "Encounter",
        "id": "d0394531-e7f6-4348-8cf4-0f0d9f8eee68",
        "identifier": [
          {
            "use": "temp",
            "value": "Encounter_Emily Wilson_20251023095354"
          }
        ],
        "status": "completed",
        "priority": {
          "coding": [
            {
              "system": "http://snomed.info/sct",
              "code": "17621005",
              "display": "Normal"
            }
          ]
        },
        "type": [
          {
            "coding": [
              {
                "system": "http://snomed.info/sct",
                "code": "11429006",
                "display": "Consultation"
              }
            ]
          }
        ],
        "subject": {
          "reference": "Patient/f99b618d-50a7-46b4-accc-bc15b702c484",
          "display": "Emily Wilson"
        },
        "reason": [
          {
            "value": [
              {
                "concept": {
                  "text": "fatigue"
                }
              }
            ]
          }
        ]
      },
      "request": {
        "method": "POST",
        "url": "Encounter"
      }
    },
    {
      "fullUrl": "urn:uuid:ae57e335-7165-47ea-ad9a-dc5e1b5b2633",
      "resource": {
        "resourceType": "Observation",
        "id": "ae57e335-7165-47ea-ad9a-dc5e1b5b2633",
        "status": "final",
        "category": [
          {
            "coding": [
              {
                "system": "http://terminology.hl7.org/CodeSystem/observation-category",
                "code": "laboratory",
                "display": "Laboratory"
              }
            ],
            "text": "Laboratory"
          }
        ],
        "code": {
          "coding": [
            {
              "system": "http://loinc.org",
              "code": "58410-2",
              "display": "Complete blood count panel"
            }
          ],
          "text": "Complete Blood Count"
        },
        "subject": {
          "reference": "Patient/f99b618d-50a7-46b4-accc-bc15b702c484"
        },
        "encounter": {
          "reference": "Encounter/d0394531-e7f6-4348-8cf4-0f0d9f8eee68"
        },
        "effectiveDateTime": "2025-08-16",
        "interpretation": [
          {
            "coding": [
              {
                "system": "http://terminology.hl7.org/CodeSystem/v3-ObservationInterpretation",
                "code": "N",
                "display": "Normal"
              }
            ]
          }
        ],
        "note": [
          {
            "text": "Definition: https://loinc.org/58410-2/"
          }
        ]
      },
      "request": {
        "method": "POST",
        "url": "Observation"
      }
    },
    {
      "fullUrl": "urn:uuid:14fdb2ca-db1a-4360-a6e9-8705c586268f",
      "resource": {
        "resourceType": "Observation",
        "id": "14fdb2ca-db1a-4360-a6e9-8705c586268f",
        "status": "final",
        "category": [
          {
            "coding": [
              {
                "system": "http://terminology.hl7.org/CodeSystem/observation-category",
                "code": "laboratory",
                "display": "Laboratory"
              }
            ],
            "text": "Laboratory"
          }
        ],
        "code": {
          "coding": [
            {
              "system": "http://loinc.org",
              "code": "51990-0",
              "display": "Basic metabolic panel"
            }
          ],
          "text": "Basic Metabolic Panel"
        },
        "subject": {
          "reference": "Patient/f99b618d-50a7-46b4-accc-bc15b702c484"
        },
        "encounter": {
          "reference": "Encounter/d0394531-e7f6-4348-8cf4-0f0d9f8eee68"
        },
        "effectiveDateTime": "2025-08-16",
        "interpretation": [
          {
            "coding": [
              {
                "system": "http://terminology.hl7.org/CodeSystem/v3-ObservationInterpretation",
                "code": "N",
                "display": "Normal"
              }
            ]
          }
        ],
        "note": [
          {
            "text": "Definition: https://loinc.org/51990-0/"
          }
        ]
      },
      "request": {
        "method": "POST",
        "url": "Observation"
      }
    },
    {
      "fullUrl": "urn:uuid:8d8d339b-1265-4118-939e-1be93a3b39ef",
      "resource": {
        "resourceType": "Observation",
        "id": "8d8d339b-1265-4118-939e-1be93a3b39ef",
        "status": "final",
        "category": [
          {
            "coding": [
              {
                "system": "http://terminology.hl7.org/CodeSystem/observation-category",
                "code": "exam",
                "display": "Exam"
              }
            ],
            "text": "Exam"
          }
        ],
        "code": {
          "coding": [
            {
              "system": "http://snomed.info/sct",
              "code": "84229001",
              "display": "Fatigue"
            }
          ],
          "text": "Fatigue"
        },
        "subject": {
          "reference": "Patient/f99b618d-50a7-46b4-accc-bc15b702c484"
        },
        "encounter": {
          "reference": "Encounter/d0394531-e7f6-4348-8cf4-0f0d9f8eee68"
        },
        "effectivePeriod": {
          "start": "2025-08-16"
        },
        "valueBoolean": true,
        "note": [
          {
            "text": "Definition: https://snomed.info/id/84229001"
          }
        ]
      },
      "request": {
        "method": "POST",
        "url": "Observation"
      }
    },
    {
      "fullUrl": "urn:uuid:500dca5b-81ad-4280-914e-0c9577722205",
      "resource": {
        "resourceType": "List",
        "id": "500dca5b-81ad-4280-914e-0c9577722205",
        "contained": [
          {
            "resourceType": "FamilyMemberHistory",
            "id": "fmh-3",
            "status": "completed",
            "patient": {
              "reference": "Patient/f99b618d-50a7-46b4-accc-bc15b702c484"
            },
            "relationship": {
              "coding": [
                {
                  "system": "http://snomed.info/sct",
                  "code": "66839005",
                  "display": "Father"
                }
              ]
            },
            "deceasedBoolean": false,
            "condition": [
              {
                "code": {
                  "coding": [
                    {
                      "system": "http://snomed.info/sct",
                      "code": "38341003",
                      "display": "Hypertensive disorder"
                    }
                  ]
                }
              }
            ]
          }
        ],
        "status": "current",
        "mode": "snapshot",
        "code": {
          "coding": [
            {
              "system": "http://loinc.org",
              "code": "8670-2",
              "display": "History of family member diseases"
            }
          ]
        },
        "subject": [
          {
            "reference": "Patient/f99b618d-50a7-46b4-accc-bc15b702c484"
          }
        ],
        "note": [
          {
            "text": "Both parents are alive and relatively healthy"
          }
        ],
        "entry": [
          {
            "item": {
              "reference": "#fmh-3"
            }
          }
        ]
      },
      "request": {
        "method": "POST",
        "url": "FamilyMemberHistory"
      }
    }
  ]
}