{
  "resourceType": "Bundle",
  "type": "transaction",
  "entry": [
    {
      "fullUrl": "urn:uuid:d4e9e05a-3f39-4c64-9f16-85ec4e3cc168",
      "resource": {
        "resourceType": "Patient",
        "id": "d4e9e05a-3f39-4c64-9f16-85ec4e3cc168",
        "name": [
          {
            "family": "Wilson",
            "given": [
              "Emily"
            ]
          }
        ],
        "gender": "female",
        "birthDate": "1993-01-01",
        "address": [
          {}
        ]
      },
      "request": {
        "method": "POST",
        "url": "Patient"
      }
    },
    {
      "fullUrl": "urn:uuid:ae7c3902-5793-446c-a7da-787fc9c1cf18",
      "resource": {
        "resourceType": "Encounter",
        "id": "ae7c3902-5793-446c-a7da-787fc9c1cf18",
        "identifier": [
          {
            "use": "temp",
            "value": "Encounter_Emily Wilson_20251023095258"
          }
        ],
        "status": "completed",
        "priority": {
          "coding": [
            {
              "system": "http://snomed.info/sct",
              "code": "17621005",
              "display": "Normal"
            }
          ]
        },
        "type": [
          {
            "coding": [
              {
                "system": "http://snomed.info/sct",
                "code": "11429006",
                "display": "Consultation"
              }
            ]
          }
        ],
        "subject": {
          "reference": "Patient/d4e9e05a-3f39-4c64-9f16-85ec4e3cc168",
          "display": "Emily Wilson"
        },
        "reason": [
          {
            "value": [
              {
                "concept": {
                  "text": "complaints of occasional abdominal discomfort and bloating"
                }
              }
            ]
          }
        ]
      },
      "request": {
        "method": "POST",
        "url": "Encounter"
      }
    },
    {
      "fullUrl": "urn:uuid:e111fd2f-93c9-475c-ae80-1a30b2ee8140",
      "resource": {
        "resourceType": "Observation",
        "id": "e111fd2f-93c9-475c-ae80-1a30b2ee8140",
        "status": "final",
        "category": [
          {
            "coding": [
              {
                "system": "http://terminology.hl7.org/CodeSystem/observation-category",
                "code": "laboratory",
                "display": "Laboratory"
              }
            ],
            "text": "Laboratory"
          }
        ],
        "code": {
          "coding": [
            {
              "system": "http://loinc.org",
              "code": "58410-2",
              "display": "Complete blood count panel"
            }
          ],
          "text": "Complete Blood Count"
        },
        "subject": {
          "reference": "Patient/d4e9e05a-3f39-4c64-9f16-85ec4e3cc168"
        },
        "encounter": {
          "reference": "Encounter/ae7c3902-5793-446c-a7da-787fc9c1cf18"
        },
        "effectiveDateTime": "2025-10-16",
        "interpretation": [
          {
            "coding": [
              {
                "system": "http://terminology.hl7.org/CodeSystem/v3-ObservationInterpretation",
                "code": "N",
                "display": "Normal"
              }
            ]
          }
        ],
        "note": [
          {
            "text": "Definition: https://loinc.org/58410-2/"
          }
        ]
      },
      "request": {
        "method": "POST",
        "url": "Observation"
      }
    },
    {
      "fullUrl": "urn:uuid:18e843ac-201c-4db3-aec3-617212509c63",
      "resource": {
        "resourceType": "Observation",
        "id": "18e843ac-201c-4db3-aec3-617212509c63",
        "status": "final",
        "category": [
          {
            "coding": [
              {
                "system": "http://terminology.hl7.org/CodeSystem/observation-category",
                "code": "laboratory",
                "display": "Laboratory"
              }
            ],
            "text": "Laboratory"
          }
        ],
        "code": {
          "coding": [
            {
              "system": "http://loinc.org",
              "code": "62854-5",
              "display": "PhenX - glycosylated hemoglobin assay reflecting long-term glucose concentration protocol 140901"
            }
          ],
          "text": "Hemoglobin"
        },
        "subject": {
          "reference": "Patient/d4e9e05a-3f39-4c64-9f16-85ec4e3cc168"
        },
        "encounter": {
          "reference": "Encounter/ae7c3902-5793-446c-a7da-787fc9c1cf18"
        },
        "effectiveDateTime": "2025-10-16",
        "valueQuantity": {
          "value": 13.5,
          "unit": "grams per deciliter",
          "system": "http://unitsofmeasure.org",
          "code": "grams per deciliter"
        },
        "interpretation": [
          {
            "coding": [
              {
                "system": "http://terminology.hl7.org/CodeSystem/v3-ObservationInterpretation",
                "code": "N",
                "display": "Normal"
              }
            ]
          }
        ],
        "note": [
          {
            "text": "Definition: https://loinc.org/62854-5/"
          }
        ]
      },
      "request": {
        "method": "POST",
        "url": "Observation"
      }
    },
    {
      "fullUrl": "urn:uuid:d065fb46-a5ef-432e-b36f-1c7623146bb2",
      "resource": {
        "resourceType": "Observation",
        "id": "d065fb46-a5ef-432e-b36f-1c7623146bb2",
        "status": "final",
        "category": [
          {
            "coding": [
              {
                "system": "http://terminology.hl7.org/CodeSystem/observation-category",
                "code": "laboratory",
                "display": "Laboratory"
              }
            ],
            "text": "Laboratory"
          }
        ],
        "code": {
          "coding": [
            {
              "system": "http://loinc.org",
              "code": "26464-8",
              "display": "WBC # Bld"
            }
          ],
          "text": "White Blood Cell Count"
        },
        "subject": {
          "reference": "Patient/d4e9e05a-3f39-4c64-9f16-85ec4e3cc168"
        },
        "encounter": {
          "reference": "Encounter/ae7c3902-5793-446c-a7da-787fc9c1cf18"
        },
        "effectiveDateTime": "2025-10-16",
        "valueQuantity": {
          "value": 6.2,
          "unit": "thousand cells per microliter",
          "system": "http://unitsofmeasure.org",
          "code": "thousand cells per microliter"
        },
        "interpretation": [
          {
            "coding": [
              {
                "system": "http://terminology.hl7.org/CodeSystem/v3-ObservationInterpretation",
                "code": "N",
                "display": "Normal"
              }
            ]
          }
        ],
        "note": [
          {
            "text": "Definition: https://loinc.org/26464-8/"
          }
        ]
      },
      "request": {
        "method": "POST",
        "url": "Observation"
      }
    },
    {
      "fullUrl": "urn:uuid:95d879b6-a27f-4086-a491-6caa634947f1",
      "resource": {
        "resourceType": "Observation",
        "id": "95d879b6-a27f-4086-a491-6caa634947f1",
        "status": "final",
        "category": [
          {
            "coding": [
              {
                "system": "http://terminology.hl7.org/CodeSystem/observation-category",
                "code": "laboratory",
                "display": "Laboratory"
              }
            ],
            "text": "Laboratory"
          }
        ],
        "code": {
          "coding": [
            {
              "system": "http://loinc.org",
              "code": "74775-8",
              "display": "Platelet # PRP Auto"
            }
          ],
          "text": "Platelet Count"
        },
        "subject": {
          "reference": "Patient/d4e9e05a-3f39-4c64-9f16-85ec4e3cc168"
        },
        "encounter": {
          "reference": "Encounter/ae7c3902-5793-446c-a7da-787fc9c1cf18"
        },
        "effectiveDateTime": "2025-10-16",
        "valueQuantity": {
          "value": 220.0,
          "unit": "thousand cells per microliter",
          "system": "http://unitsofmeasure.org",
          "code": "thousand cells per microliter"
        },
        "interpretation": [
          {
            "coding": [
              {
                "system": "http://terminology.hl7.org/CodeSystem/v3-ObservationInterpretation",
                "code": "N",
                "display": "Normal"
              }
            ]
          }
        ],
        "note": [
          {
            "text": "Definition: https://loinc.org/74775-8/"
          }
        ]
      },
      "request": {
        "method": "POST",
        "url": "Observation"
      }
    },
    {
      "fullUrl": "urn:uuid:d440e5ab-cfa3-44fd-9cad-9e1df7dd06c3",
      "resource": {
        "resourceType": "Observation",
        "id": "d440e5ab-cfa3-44fd-9cad-9e1df7dd06c3",
        "status": "final",
        "category": [
          {
            "coding": [
              {
                "system": "http://terminology.hl7.org/CodeSystem/observation-category",
                "code": "laboratory",
                "display": "Laboratory"
              }
            ],
            "text": "Laboratory"
          }
        ],
        "code": {
          "coding": [
            {
              "system": "http://loinc.org",
              "code": "24322-0",
              "display": "Comprehensive metabolic 1998 panel"
            }
          ],
          "text": "Comprehensive Metabolic Panel"
        },
        "subject": {
          "reference": "Patient/d4e9e05a-3f39-4c64-9f16-85ec4e3cc168"
        },
        "encounter": {
          "reference": "Encounter/ae7c3902-5793-446c-a7da-787fc9c1cf18"
        },
        "effectiveDateTime": "2025-10-16",
        "note": [
          {
            "text": "Definition: https://loinc.org/24322-0/"
          }
        ]
      },
      "request": {
        "method": "POST",
        "url": "Observation"
      }
    },
    {
      "fullUrl": "urn:uuid:679f3d6b-c03a-4fd3-8ca4-f13e7d9bafc4",
      "resource": {
        "resourceType": "Observation",
        "id": "679f3d6b-c03a-4fd3-8ca4-f13e7d9bafc4",
        "status": "final",
        "category": [
          {
            "coding": [
              {
                "system": "http://terminology.hl7.org/CodeSystem/observation-category",
                "code": "laboratory",
                "display": "Laboratory"
              }
            ],
            "text": "Laboratory"
          }
        ],
        "code": {
          "coding": [
            {
              "system": "http://loinc.org",
              "code": "62807-3",
              "display": "PhenX - serum creatinine assay for kidney function protocol 141401"
            }
          ],
          "text": "Serum Creatinine"
        },
        "subject": {
          "reference": "Patient/d4e9e05a-3f39-4c64-9f16-85ec4e3cc168"
        },
        "encounter": {
          "reference": "Encounter/ae7c3902-5793-446c-a7da-787fc9c1cf18"
        },
        "effectiveDateTime": "2025-10-16",
        "valueQuantity": {
          "value": 0.8,
          "unit": "milligrams per deciliter",
          "system": "http://unitsofmeasure.org",
          "code": "milligrams per deciliter"
        },
        "interpretation": [
          {
            "coding": [
              {
                "system": "http://terminology.hl7.org/CodeSystem/v3-ObservationInterpretation",
                "code": "N",
                "display": "Normal"
              }
            ]
          }
        ],
        "note": [
          {
            "text": "Definition: https://loinc.org/62807-3/"
          }
        ]
      },
      "request": {
        "method": "POST",
        "url": "Observation"
      }
    },
    {
      "fullUrl": "urn:uuid:64554e16-2fc5-4ed8-a307-6735051c4287",
      "resource": {
        "resourceType": "Observation",
        "id": "64554e16-2fc5-4ed8-a307-6735051c4287",
        "status": "final",
        "category": [
          {
            "coding": [
              {
                "system": "http://terminology.hl7.org/CodeSystem/observation-category",
                "code": "laboratory",
                "display": "Laboratory"
              }
            ],
            "text": "Laboratory"
          }
        ],
        "code": {
          "coding": [
            {
              "system": "http://loinc.org",
              "code": "1916-6",
              "display": "AST/ALT SerPl-cRto"
            }
          ],
          "text": "Alanine Transaminase"
        },
        "subject": {
          "reference": "Patient/d4e9e05a-3f39-4c64-9f16-85ec4e3cc168"
        },
        "encounter": {
          "reference": "Encounter/ae7c3902-5793-446c-a7da-787fc9c1cf18"
        },
        "effectiveDateTime": "2025-10-16",
        "valueQuantity": {
          "value": 22.0,
          "unit": "units per liter",
          "system": "http://unitsofmeasure.org",
          "code": "units per liter"
        },
        "interpretation": [
          {
            "coding": [
              {
                "system": "http://terminology.hl7.org/CodeSystem/v3-ObservationInterpretation",
                "code": "N",
                "display": "Normal"
              }
            ]
          }
        ],
        "note": [
          {
            "text": "Definition: https://loinc.org/1916-6/"
          }
        ]
      },
      "request": {
        "method": "POST",
        "url": "Observation"
      }
    },
    {
      "fullUrl": "urn:uuid:c4b26971-940d-4b09-ad70-3df8de764f1e",
      "resource": {
        "resourceType": "Observation",
        "id": "c4b26971-940d-4b09-ad70-3df8de764f1e",
        "status": "final",
        "category": [
          {
            "coding": [
              {
                "system": "http://terminology.hl7.org/CodeSystem/observation-category",
                "code": "exam",
                "display": "Exam"
              }
            ],
            "text": "Exam"
          }
        ],
        "code": {
          "coding": [
            {
              "system": "http://snomed.info/sct",
              "code": "43364001",
              "display": "Abdominal discomfort"
            }
          ],
          "text": "Abdominal discomfort"
        },
        "subject": {
          "reference": "Patient/d4e9e05a-3f39-4c64-9f16-85ec4e3cc168"
        },
        "encounter": {
          "reference": "Encounter/ae7c3902-5793-446c-a7da-787fc9c1cf18"
        },
        "effectivePeriod": {
          "start": "2025-10-16"
        },
        "valueBoolean": true,
        "note": [
          {
            "text": "Definition: https://snomed.info/id/43364001"
          }
        ]
      },
      "request": {
        "method": "POST",
        "url": "Observation"
      }
    },
    {
      "fullUrl": "urn:uuid:1f8abf2a-de34-44aa-8ff3-0909fbbd77d3",
      "resource": {
        "resourceType": "Observation",
        "id": "1f8abf2a-de34-44aa-8ff3-0909fbbd77d3",
        "status": "final",
        "category": [
          {
            "coding": [
              {
                "system": "http://terminology.hl7.org/CodeSystem/observation-category",
                "code": "exam",
                "display": "Exam"
              }
            ],
            "text": "Exam"
          }
        ],
        "code": {
          "coding": [
            {
              "system": "http://snomed.info/sct",
              "code": "722879009",
              "display": "Functional bloating"
            }
          ],
          "text": "Bloating"
        },
        "subject": {
          "reference": "Patient/d4e9e05a-3f39-4c64-9f16-85ec4e3cc168"
        },
        "encounter": {
          "reference": "Encounter/ae7c3902-5793-446c-a7da-787fc9c1cf18"
        },
        "effectivePeriod": {
          "start": "2025-10-16"
        },
        "valueBoolean": true,
        "note": [
          {
            "text": "Definition: https://snomed.info/id/722879009"
          }
        ]
      },
      "request": {
        "method": "POST",
        "url": "Observation"
      }
    },
    {
      "fullUrl": "urn:uuid:ee0da5fd-8c4f-48e1-84d7-e045d869ba1e",
      "resource": {
        "resourceType": "Observation",
        "id": "ee0da5fd-8c4f-48e1-84d7-e045d869ba1e",
        "status": "final",
        "category": [
          {
            "coding": [
              {
                "system": "http://terminology.hl7.org/CodeSystem/observation-category",
                "code": "exam",
                "display": "Exam"
              }
            ],
            "text": "Exam"
          }
        ],
        "code": {
          "coding": [
            {
              "system": "http://snomed.info/sct",
              "code": "35064005",
              "display": "Dark stools"
            }
          ],
          "text": "Loose stools"
        },
        "subject": {
          "reference": "Patient/d4e9e05a-3f39-4c64-9f16-85ec4e3cc168"
        },
        "encounter": {
          "reference": "Encounter/ae7c3902-5793-446c-a7da-787fc9c1cf18"
        },
        "effectivePeriod": {
          "start": "2025-10-16"
        },
        "valueBoolean": true,
        "note": [
          {
            "text": "Definition: https://snomed.info/id/35064005"
          }
        ]
      },
      "request": {
        "method": "POST",
        "url": "Observation"
      }
    },
    {
      "fullUrl": "urn:uuid:9f489aa5-4cfc-4a2a-8f3c-70645e0a7e85",
      "resource": {
        "resourceType": "Observation",
        "id": "9f489aa5-4cfc-4a2a-8f3c-70645e0a7e85",
        "status": "final",
        "category": [
          {
            "coding": [
              {
                "system": "http://terminology.hl7.org/CodeSystem/observation-category",
                "code": "vital-signs",
                "display": "Vital Signs"
              }
            ],
            "text": "Vital Signs"
          }
        ],
        "code": {
          "coding": [
            {
              "system": "http://loinc.org",
              "code": "8310-5",
              "display": "Body temperature"
            }
          ],
          "text": "temperature"
        },
        "subject": {
          "reference": "Patient/d4e9e05a-3f39-4c64-9f16-85ec4e3cc168"
        },
        "encounter": {
          "reference": "Encounter/ae7c3902-5793-446c-a7da-787fc9c1cf18"
        },
        "effectiveDateTime": "2025-10-16",
        "valueQuantity": {
          "value": 37.2,
          "unit": "degrees Celsius",
          "system": "http://unitsofmeasure.org",
          "code": "degrees Celsius"
        },
        "interpretation": [
          {
            "coding": [
              {
                "system": "http://terminology.hl7.org/CodeSystem/v3-ObservationInterpretation",
                "code": "N",
                "display": "Normal"
              }
            ],
            "text": "Normal"
          }
        ]
      },
      "request": {
        "method": "POST",
        "url": "Observation"
      }
    },
    {
      "fullUrl": "urn:uuid:3d8c82b9-6cab-49c8-af29-f35915ae3a74",
      "resource": {
        "resourceType": "Observation",
        "id": "3d8c82b9-6cab-49c8-af29-f35915ae3a74",
        "status": "final",
        "category": [
          {
            "coding": [
              {
                "system": "http://terminology.hl7.org/CodeSystem/observation-category",
                "code": "vital-signs",
                "display": "Vital Signs"
              }
            ],
            "text": "Vital Signs"
          }
        ],
        "code": {
          "coding": [
            {
              "system": "http://loinc.org",
              "code": "62733-1",
              "display": "PhenX - respiratory - pulse oximetry - rest protocol 091101"
            }
          ],
          "text": "pulse"
        },
        "subject": {
          "reference": "Patient/d4e9e05a-3f39-4c64-9f16-85ec4e3cc168"
        },
        "encounter": {
          "reference": "Encounter/ae7c3902-5793-446c-a7da-787fc9c1cf18"
        },
        "effectiveDateTime": "2025-10-16",
        "valueQuantity": {
          "value": 82.0,
          "unit": "beats per minute",
          "system": "http://unitsofmeasure.org",
          "code": "beats per minute"
        },
        "interpretation": [
          {
            "coding": [
              {
                "system": "http://terminology.hl7.org/CodeSystem/v3-ObservationInterpretation",
                "code": "N",
                "display": "Normal"
              }
            ],
            "text": "Normal"
          }
        ]
      },
      "request": {
        "method": "POST",
        "url": "Observation"
      }
    },
    {
      "fullUrl": "urn:uuid:356da935-655e-4826-84d1-dc26b02d7445",
      "resource": {
        "resourceType": "Observation",
        "id": "356da935-655e-4826-84d1-dc26b02d7445",
        "status": "final",
        "category": [
          {
            "coding": [
              {
                "system": "http://terminology.hl7.org/CodeSystem/observation-category",
                "code": "vital-signs",
                "display": "Vital Signs"
              }
            ],
            "text": "Vital Signs"
          }
        ],
        "code": {
          "coding": [
            {
              "system": "http://loinc.org",
              "code": "18684-1",
              "display": "Blood pressure"
            }
          ],
          "text": "blood pressure"
        },
        "subject": {
          "reference": "Patient/d4e9e05a-3f39-4c64-9f16-85ec4e3cc168"
        },
        "encounter": {
          "reference": "Encounter/ae7c3902-5793-446c-a7da-787fc9c1cf18"
        },
        "effectiveDateTime": "2025-10-16",
        "interpretation": [
          {
            "coding": [
              {
                "system": "http://terminology.hl7.org/CodeSystem/v3-ObservationInterpretation",
                "code": "N",
                "display": "Normal"
              }
            ],
            "text": "Normal"
          }
        ]
      },
      "request": {
        "method": "POST",
        "url": "Observation"
      }
    },
    {
      "fullUrl": "urn:uuid:2dd57500-d937-486d-bab2-dbd7c266d6eb",
      "resource": {
        "resourceType": "Observation",
        "id": "2dd57500-d937-486d-bab2-dbd7c266d6eb",
        "status": "final",
        "category": [
          {
            "coding": [
              {
                "system": "http://terminology.hl7.org/CodeSystem/observation-category",
                "code": "vital-signs",
                "display": "Vital Signs"
              }
            ],
            "text": "Vital Signs"
          }
        ],
        "code": {
          "coding": [
            {
              "system": "http://loinc.org",
              "code": "9279-1",
              "display": "Resp rate"
            }
          ],
          "text": "respiratory rate"
        },
        "subject": {
          "reference": "Patient/d4e9e05a-3f39-4c64-9f16-85ec4e3cc168"
        },
        "encounter": {
          "reference": "Encounter/ae7c3902-5793-446c-a7da-787fc9c1cf18"
        },
        "effectiveDateTime": "2025-10-16",
        "valueQuantity": {
          "value": 16.0,
          "unit": "breaths per minute",
          "system": "http://unitsofmeasure.org",
          "code": "breaths per minute"
        },
        "interpretation": [
          {
            "coding": [
              {
                "system": "http://terminology.hl7.org/CodeSystem/v3-ObservationInterpretation",
                "code": "N",
                "display": "Normal"
              }
            ],
            "text": "Normal"
          }
        ]
      },
      "request": {
        "method": "POST",
        "url": "Observation"
      }
    },
    {
      "fullUrl": "urn:uuid:ef17465c-91b7-4184-8ee5-44eaa47ec8af",
      "resource": {
        "resourceType": "Observation",
        "id": "ef17465c-91b7-4184-8ee5-44eaa47ec8af",
        "status": "final",
        "category": [
          {
            "coding": [
              {
                "system": "http://terminology.hl7.org/CodeSystem/observation-category",
                "code": "vital-signs",
                "display": "Vital Signs"
              }
            ],
            "text": "Vital Signs"
          }
        ],
        "code": {
          "coding": [
            {
              "system": "http://loinc.org",
              "code": "8337-8",
              "display": "Bdy weight special circumstances"
            }
          ],
          "text": "weight"
        },
        "subject": {
          "reference": "Patient/d4e9e05a-3f39-4c64-9f16-85ec4e3cc168"
        },
        "encounter": {
          "reference": "Encounter/ae7c3902-5793-446c-a7da-787fc9c1cf18"
        },
        "effectiveDateTime": "2025-10-16",
        "valueQuantity": {
          "value": 58.0,
          "unit": "kilograms",
          "system": "http://unitsofmeasure.org",
          "code": "kilograms"
        },
        "interpretation": [
          {
            "coding": [
              {
                "system": "http://terminology.hl7.org/CodeSystem/v3-ObservationInterpretation",
                "code": "N",
                "display": "Normal"
              }
            ],
            "text": "Normal"
          }
        ]
      },
      "request": {
        "method": "POST",
        "url": "Observation"
      }
    },
    {
      "fullUrl": "urn:uuid:224763e0-0c38-4c45-b968-45cb4dbf662f",
      "resource": {
        "resourceType": "Observation",
        "id": "224763e0-0c38-4c45-b968-45cb4dbf662f",
        "status": "final",
        "category": [
          {
            "coding": [
              {
                "system": "http://terminology.hl7.org/CodeSystem/observation-category",
                "code": "vital-signs",
                "display": "Vital Signs"
              }
            ],
            "text": "Vital Signs"
          }
        ],
        "code": {
          "coding": [
            {
              "system": "http://loinc.org",
              "code": "92998-4",
              "display": "Lower segment"
            }
          ],
          "text": "height"
        },
        "subject": {
          "reference": "Patient/d4e9e05a-3f39-4c64-9f16-85ec4e3cc168"
        },
        "encounter": {
          "reference": "Encounter/ae7c3902-5793-446c-a7da-787fc9c1cf18"
        },
        "effectiveDateTime": "2025-10-16",
        "valueQuantity": {
          "value": 165.0,
          "unit": "centimeters",
          "system": "http://unitsofmeasure.org",
          "code": "centimeters"
        },
        "interpretation": [
          {
            "coding": [
              {
                "system": "http://terminology.hl7.org/CodeSystem/v3-ObservationInterpretation",
                "code": "N",
                "display": "Normal"
              }
            ],
            "text": "Normal"
          }
        ]
      },
      "request": {
        "method": "POST",
        "url": "Observation"
      }
    },
    {
      "fullUrl": "urn:uuid:27842827-a24b-47e7-a600-528573f90dcc",
      "resource": {
        "resourceType": "Observation",
        "id": "27842827-a24b-47e7-a600-528573f90dcc",
        "status": "final",
        "category": [
          {
            "coding": [
              {
                "system": "http://terminology.hl7.org/CodeSystem/observation-category",
                "code": "vital-signs",
                "display": "Vital Signs"
              }
            ],
            "text": "Vital Signs"
          }
        ],
        "code": {
          "coding": [
            {
              "system": "http://loinc.org",
              "code": "97057-4",
              "display": "Body mass index"
            }
          ],
          "text": "body mass index"
        },
        "subject": {
          "reference": "Patient/d4e9e05a-3f39-4c64-9f16-85ec4e3cc168"
        },
        "encounter": {
          "reference": "Encounter/ae7c3902-5793-446c-a7da-787fc9c1cf18"
        },
        "effectiveDateTime": "2025-10-16",
        "interpretation": [
          {
            "coding": [
              {
                "system": "http://terminology.hl7.org/CodeSystem/v3-ObservationInterpretation",
                "code": "N",
                "display": "Normal"
              }
            ],
            "text": "Normal"
          }
        ]
      },
      "request": {
        "method": "POST",
        "url": "Observation"
      }
    },
    {
      "fullUrl": "urn:uuid:03bb6f61-c939-4aae-86de-1ffc18fb0e36",
      "resource": {
        "resourceType": "Observation",
        "id": "03bb6f61-c939-4aae-86de-1ffc18fb0e36",
        "status": "final",
        "category": [
          {
            "coding": [
              {
                "system": "http://terminology.hl7.org/CodeSystem/observation-category",
                "code": "vital-signs",
                "display": "Vital Signs"
              }
            ],
            "text": "Vital Signs"
          }
        ],
        "code": {
          "coding": [
            {
              "system": "http://loinc.org",
              "code": "2717-7",
              "display": "OxyHgb MFr Plas"
            }
          ],
          "text": "oxygen saturation"
        },
        "subject": {
          "reference": "Patient/d4e9e05a-3f39-4c64-9f16-85ec4e3cc168"
        },
        "encounter": {
          "reference": "Encounter/ae7c3902-5793-446c-a7da-787fc9c1cf18"
        },
        "effectiveDateTime": "2025-10-16",
        "valueQuantity": {
          "value": 98.0,
          "unit": "%",
          "system": "http://unitsofmeasure.org",
          "code": "%"
        },
        "interpretation": [
          {
            "coding": [
              {
                "system": "http://terminology.hl7.org/CodeSystem/v3-ObservationInterpretation",
                "code": "N",
                "display": "Normal"
              }
            ],
            "text": "Normal"
          }
        ]
      },
      "request": {
        "method": "POST",
        "url": "Observation"
      }
    },
    {
      "fullUrl": "urn:uuid:a8dfdd36-df15-4500-8144-5aa00f32c777",
      "resource": {
        "resourceType": "MedicationStatement",
        "id": "a8dfdd36-df15-4500-8144-5aa00f32c777",
        "status": "recorded",
        "medication": {
          "concept": {
            "coding": [
              {
                "system": "http://snomed.info/sct",
                "code": "412250002",
                "display": "Multivitamin agent"
              }
            ],
            "text": "Multivitamin"
          }
        },
        "subject": {
          "reference": "Patient/d4e9e05a-3f39-4c64-9f16-85ec4e3cc168"
        },
        "encounter": {
          "reference": "Encounter/ae7c3902-5793-446c-a7da-787fc9c1cf18"
        },
        "effectiveDateTime": "2025-10-16",
        "informationSource": [
          {
            "reference": "Patient/d4e9e05a-3f39-4c64-9f16-85ec4e3cc168"
          }
        ],
        "dosage": [
          {
            "text": "once daily",
            "timing": {
              "repeat": {
                "frequency": 1,
                "period": 1.0,
                "periodUnit": "d"
              }
            }
          }
        ],
        "adherence": {
          "code": {
            "coding": [
              {
                "system": "http://hl7.org/fhir/CodeSystem/medication-statement-adherence",
                "code": "taking",
                "display": "Taking"
              }
            ]
          }
        }
      },
      "request": {
        "method": "POST",
        "url": "MedicationStatement"
      }
    },
    {
      "fullUrl": "urn:uuid:f24ba47c-c25d-4b74-89de-743376fe9778",
      "resource": {
        "resourceType": "MedicationStatement",
        "id": "f24ba47c-c25d-4b74-89de-743376fe9778",
        "status": "recorded",
        "medication": {
          "concept": {
            "coding": [
              {
                "system": "http://snomed.info/sct",
                "code": "395675007",
                "display": "Oral contraceptive pill contraindicated"
              }
            ],
            "text": "Oral contraceptive pill"
          }
        },
        "subject": {
          "reference": "Patient/d4e9e05a-3f39-4c64-9f16-85ec4e3cc168"
        },
        "encounter": {
          "reference": "Encounter/ae7c3902-5793-446c-a7da-787fc9c1cf18"
        },
        "effectiveDateTime": "2025-10-16",
        "informationSource": [
          {
            "reference": "Patient/d4e9e05a-3f39-4c64-9f16-85ec4e3cc168"
          }
        ],
        "adherence": {
          "code": {
            "coding": [
              {
                "system": "http://hl7.org/fhir/CodeSystem/medication-statement-adherence",
                "code": "taking",
                "display": "Taking"
              }
            ]
          }
        }
      },
      "request": {
        "method": "POST",
        "url": "MedicationStatement"
      }
    },
    {
      "fullUrl": "urn:uuid:2537308b-5a0a-4331-805d-821820e4a8bf",
      "resource": {
        "resourceType": "Encounter",
        "id": "2537308b-5a0a-4331-805d-821820e4a8bf",
        "identifier": [
          {
            "use": "temp",
            "value": "Encounter_Emily Wilson_20251023095312"
          }
        ],
        "status": "completed",
        "priority": {
          "coding": [
            {
              "system": "http://snomed.info/sct",
              "code": "17621005",
              "display": "Normal"
            }
          ]
        },
        "type": [
          {
            "coding": [
              {
                "system": "http://snomed.info/sct",
                "code": "11429006",
                "display": "Consultation"
              }
            ]
          }
        ],
        "subject": {
          "reference": "Patient/d4e9e05a-3f39-4c64-9f16-85ec4e3cc168",
          "display": "Emily Wilson"
        },
        "reason": [
          {
            "value": [
              {
                "concept": {
                  "text": "routine check-up"
                }
              }
            ]
          }
        ]
      },
      "request": {
        "method": "POST",
        "url": "Encounter"
      }
    },
    {
      "fullUrl": "urn:uuid:de19f4a8-e0b6-4425-b7eb-e1ec3e5d95c7",
      "resource": {
        "resourceType": "Observation",
        "id": "de19f4a8-e0b6-4425-b7eb-e1ec3e5d95c7",
        "status": "final",
        "category": [
          {
            "coding": [
              {
                "system": "http://terminology.hl7.org/CodeSystem/observation-category",
                "code": "vital-signs",
                "display": "Vital Signs"
              }
            ],
            "text": "Vital Signs"
          }
        ],
        "code": {
          "coding": [
            {
              "system": "http://loinc.org",
              "code": "18684-1",
              "display": "Blood pressure"
            }
          ],
          "text": "blood pressure"
        },
        "subject": {
          "reference": "Patient/d4e9e05a-3f39-4c64-9f16-85ec4e3cc168"
        },
        "encounter": {
          "reference": "Encounter/2537308b-5a0a-4331-805d-821820e4a8bf"
        },
        "effectiveDateTime": "2025-08-16"
      },
      "request": {
        "method": "POST",
        "url": "Observation"
      }
    },
    {
      "fullUrl": "urn:uuid:18283a87-742f-4eb0-aad1-3781e03e9690",
      "resource": {
        "resourceType": "List",
        "id": "18283a87-742f-4eb0-aad1-3781e03e9690",
        "contained": [
          {
            "resourceType": "FamilyMemberHistory",
            "id": "fmh-3",
            "status": "completed",
            "patient": {
              "reference": "Patient/d4e9e05a-3f39-4c64-9f16-85ec4e3cc168"
            },
            "relationship": {
              "coding": [
                {
                  "system": "http://snomed.info/sct",
                  "code": "70924004",
                  "display": "Brother"
                }
              ]
            },
            "deceasedBoolean": false,
            "condition": [
              {
                "code": {
                  "coding": [
                    {
                      "system": "http://snomed.info/sct",
                      "code": "195967001",
                      "display": "Asthma"
                    }
                  ]
                }
              }
            ]
          }
        ],
        "status": "current",
        "mode": "snapshot",
        "code": {
          "coding": [
            {
              "system": "http://loinc.org",
              "code": "8670-2",
              "display": "History of family member diseases"
            }
          ]
        },
        "subject": [
          {
            "reference": "Patient/d4e9e05a-3f39-4c64-9f16-85ec4e3cc168"
          }
        ],
        "note": [
          {
            "text": "Both parents are alive and healthy, with no known chronic medical conditions."
          }
        ],
        "entry": [
          {
            "item": {
              "reference": "#fmh-3"
            }
          }
        ]
      },
      "request": {
        "method": "POST",
        "url": "FamilyMemberHistory"
      }
    }
  ]
}