{
  "resourceType": "Bundle",
  "type": "transaction",
  "entry": [
    {
      "fullUrl": "urn:uuid:e5142052-7f0a-42f6-b5a4-d9b224b6492f",
      "resource": {
        "resourceType": "Patient",
        "id": "e5142052-7f0a-42f6-b5a4-d9b224b6492f",
        "name": [
          {
            "family": "Wilson",
            "given": [
              "Emily"
            ]
          }
        ],
        "gender": "female",
        "birthDate": "1997-01-01",
        "address": [
          {}
        ]
      },
      "request": {
        "method": "POST",
        "url": "Patient"
      }
    },
    {
      "fullUrl": "urn:uuid:b2659147-c534-4449-8605-d855a5e38264",
      "resource": {
        "resourceType": "Encounter",
        "id": "b2659147-c534-4449-8605-d855a5e38264",
        "identifier": [
          {
            "use": "temp",
            "value": "Encounter_Emily Wilson_20251023095515"
          }
        ],
        "status": "completed",
        "priority": {
          "coding": [
            {
              "system": "http://snomed.info/sct",
              "code": "17621005",
              "display": "Normal"
            }
          ]
        },
        "type": [
          {
            "coding": [
              {
                "system": "http://snomed.info/sct",
                "code": "11429006",
                "display": "Consultation"
              }
            ]
          }
        ],
        "subject": {
          "reference": "Patient/e5142052-7f0a-42f6-b5a4-d9b224b6492f",
          "display": "Emily Wilson"
        },
        "reason": [
          {
            "value": [
              {
                "concept": {
                  "text": "intermittent fever, fatigue, and general feeling of being unwell"
                }
              }
            ]
          }
        ]
      },
      "request": {
        "method": "POST",
        "url": "Encounter"
      }
    },
    {
      "fullUrl": "urn:uuid:b6f79249-dba5-410c-9ae0-de469da62d17",
      "resource": {
        "resourceType": "Observation",
        "id": "b6f79249-dba5-410c-9ae0-de469da62d17",
        "status": "final",
        "category": [
          {
            "coding": [
              {
                "system": "http://terminology.hl7.org/CodeSystem/observation-category",
                "code": "laboratory",
                "display": "Laboratory"
              }
            ],
            "text": "Laboratory"
          }
        ],
        "code": {
          "coding": [
            {
              "system": "http://loinc.org",
              "code": "26464-8",
              "display": "WBC # Bld"
            }
          ],
          "text": "White Blood Cell Count"
        },
        "subject": {
          "reference": "Patient/e5142052-7f0a-42f6-b5a4-d9b224b6492f"
        },
        "encounter": {
          "reference": "Encounter/b2659147-c534-4449-8605-d855a5e38264"
        },
        "effectiveDateTime": "2025-10-16",
        "valueQuantity": {
          "value": 12000.0,
          "unit": "cells per microliter",
          "system": "http://unitsofmeasure.org",
          "code": "cells per microliter"
        },
        "interpretation": [
          {
            "coding": [
              {
                "system": "http://terminology.hl7.org/CodeSystem/v3-ObservationInterpretation",
                "code": "H",
                "display": "High"
              }
            ]
          }
        ],
        "note": [
          {
            "text": "Definition: https://loinc.org/26464-8/"
          }
        ]
      },
      "request": {
        "method": "POST",
        "url": "Observation"
      }
    },
    {
      "fullUrl": "urn:uuid:c1eb2a4a-a46c-4254-8b6f-b6b29c056792",
      "resource": {
        "resourceType": "Observation",
        "id": "c1eb2a4a-a46c-4254-8b6f-b6b29c056792",
        "status": "final",
        "category": [
          {
            "coding": [
              {
                "system": "http://terminology.hl7.org/CodeSystem/observation-category",
                "code": "laboratory",
                "display": "Laboratory"
              }
            ],
            "text": "Laboratory"
          }
        ],
        "code": {
          "coding": [
            {
              "system": "http://loinc.org",
              "code": "62854-5",
              "display": "PhenX - glycosylated hemoglobin assay reflecting long-term glucose concentration protocol 140901"
            }
          ],
          "text": "Hemoglobin"
        },
        "subject": {
          "reference": "Patient/e5142052-7f0a-42f6-b5a4-d9b224b6492f"
        },
        "encounter": {
          "reference": "Encounter/b2659147-c534-4449-8605-d855a5e38264"
        },
        "effectiveDateTime": "2025-10-16",
        "valueQuantity": {
          "value": 11.5,
          "unit": "grams per deciliter",
          "system": "http://unitsofmeasure.org",
          "code": "grams per deciliter"
        },
        "interpretation": [
          {
            "coding": [
              {
                "system": "http://terminology.hl7.org/CodeSystem/v3-ObservationInterpretation",
                "code": "L",
                "display": "Low"
              }
            ]
          }
        ],
        "note": [
          {
            "text": "Definition: https://loinc.org/62854-5/"
          }
        ]
      },
      "request": {
        "method": "POST",
        "url": "Observation"
      }
    },
    {
      "fullUrl": "urn:uuid:d43e2f07-aae5-496e-821e-a0d68e9659ad",
      "resource": {
        "resourceType": "Observation",
        "id": "d43e2f07-aae5-496e-821e-a0d68e9659ad",
        "status": "final",
        "category": [
          {
            "coding": [
              {
                "system": "http://terminology.hl7.org/CodeSystem/observation-category",
                "code": "laboratory",
                "display": "Laboratory"
              }
            ],
            "text": "Laboratory"
          }
        ],
        "code": {
          "coding": [
            {
              "system": "http://loinc.org",
              "code": "74775-8",
              "display": "Platelet # PRP Auto"
            }
          ],
          "text": "Platelet Count"
        },
        "subject": {
          "reference": "Patient/e5142052-7f0a-42f6-b5a4-d9b224b6492f"
        },
        "encounter": {
          "reference": "Encounter/b2659147-c534-4449-8605-d855a5e38264"
        },
        "effectiveDateTime": "2025-10-16",
        "valueQuantity": {
          "value": 90000.0,
          "unit": "cells per microliter",
          "system": "http://unitsofmeasure.org",
          "code": "cells per microliter"
        },
        "interpretation": [
          {
            "coding": [
              {
                "system": "http://terminology.hl7.org/CodeSystem/v3-ObservationInterpretation",
                "code": "L",
                "display": "Low"
              }
            ]
          }
        ],
        "note": [
          {
            "text": "Definition: https://loinc.org/74775-8/"
          }
        ]
      },
      "request": {
        "method": "POST",
        "url": "Observation"
      }
    },
    {
      "fullUrl": "urn:uuid:034d0329-dd92-477d-81bb-60d4ec4afceb",
      "resource": {
        "resourceType": "Observation",
        "id": "034d0329-dd92-477d-81bb-60d4ec4afceb",
        "status": "final",
        "category": [
          {
            "coding": [
              {
                "system": "http://terminology.hl7.org/CodeSystem/observation-category",
                "code": "laboratory",
                "display": "Laboratory"
              }
            ],
            "text": "Laboratory"
          }
        ],
        "code": {
          "coding": [
            {
              "system": "http://loinc.org",
              "code": "1917-4",
              "display": "AST Amn-cCnc"
            }
          ],
          "text": "Aspartate Aminotransferase"
        },
        "subject": {
          "reference": "Patient/e5142052-7f0a-42f6-b5a4-d9b224b6492f"
        },
        "encounter": {
          "reference": "Encounter/b2659147-c534-4449-8605-d855a5e38264"
        },
        "effectiveDateTime": "2025-10-16",
        "valueQuantity": {
          "value": 45.0,
          "unit": "units per liter",
          "system": "http://unitsofmeasure.org",
          "code": "units per liter"
        },
        "interpretation": [
          {
            "coding": [
              {
                "system": "http://terminology.hl7.org/CodeSystem/v3-ObservationInterpretation",
                "code": "H",
                "display": "High"
              }
            ]
          }
        ],
        "note": [
          {
            "text": "Definition: https://loinc.org/1917-4/"
          }
        ]
      },
      "request": {
        "method": "POST",
        "url": "Observation"
      }
    },
    {
      "fullUrl": "urn:uuid:052d3e03-a7f3-4bb4-a4c7-2e5534015899",
      "resource": {
        "resourceType": "Observation",
        "id": "052d3e03-a7f3-4bb4-a4c7-2e5534015899",
        "status": "final",
        "category": [
          {
            "coding": [
              {
                "system": "http://terminology.hl7.org/CodeSystem/observation-category",
                "code": "laboratory",
                "display": "Laboratory"
              }
            ],
            "text": "Laboratory"
          }
        ],
        "code": {
          "coding": [
            {
              "system": "http://loinc.org",
              "code": "69478-6",
              "display": "AGXT gene Del+Dup Bld/T MLPA"
            }
          ],
          "text": "Alanine Aminotransferase"
        },
        "subject": {
          "reference": "Patient/e5142052-7f0a-42f6-b5a4-d9b224b6492f"
        },
        "encounter": {
          "reference": "Encounter/b2659147-c534-4449-8605-d855a5e38264"
        },
        "effectiveDateTime": "2025-10-16",
        "valueQuantity": {
          "value": 50.0,
          "unit": "units per liter",
          "system": "http://unitsofmeasure.org",
          "code": "units per liter"
        },
        "interpretation": [
          {
            "coding": [
              {
                "system": "http://terminology.hl7.org/CodeSystem/v3-ObservationInterpretation",
                "code": "H",
                "display": "High"
              }
            ]
          }
        ],
        "note": [
          {
            "text": "Definition: https://loinc.org/69478-6/"
          }
        ]
      },
      "request": {
        "method": "POST",
        "url": "Observation"
      }
    },
    {
      "fullUrl": "urn:uuid:4de7c3e3-6053-40e0-b4f8-588c809f939d",
      "resource": {
        "resourceType": "Observation",
        "id": "4de7c3e3-6053-40e0-b4f8-588c809f939d",
        "status": "final",
        "category": [
          {
            "coding": [
              {
                "system": "http://terminology.hl7.org/CodeSystem/observation-category",
                "code": "exam",
                "display": "Exam"
              }
            ],
            "text": "Exam"
          }
        ],
        "code": {
          "coding": [
            {
              "system": "http://snomed.info/sct",
              "code": "386661006",
              "display": "Fever"
            }
          ],
          "text": "Fever"
        },
        "subject": {
          "reference": "Patient/e5142052-7f0a-42f6-b5a4-d9b224b6492f"
        },
        "encounter": {
          "reference": "Encounter/b2659147-c534-4449-8605-d855a5e38264"
        },
        "effectivePeriod": {
          "start": "2025-10-16"
        },
        "valueBoolean": true,
        "interpretation": [
          {
            "coding": [
              {
                "system": "http://terminology.hl7.org/CodeSystem/v3-ObservationInterpretation",
                "code": "H",
                "display": "High"
              }
            ],
            "text": "High"
          }
        ],
        "note": [
          {
            "text": "Definition: https://snomed.info/id/386661006"
          }
        ]
      },
      "request": {
        "method": "POST",
        "url": "Observation"
      }
    },
    {
      "fullUrl": "urn:uuid:a77cc17b-29f9-4bf0-8b2d-9acf8fb99931",
      "resource": {
        "resourceType": "Observation",
        "id": "a77cc17b-29f9-4bf0-8b2d-9acf8fb99931",
        "status": "final",
        "category": [
          {
            "coding": [
              {
                "system": "http://terminology.hl7.org/CodeSystem/observation-category",
                "code": "exam",
                "display": "Exam"
              }
            ],
            "text": "Exam"
          }
        ],
        "code": {
          "coding": [
            {
              "system": "http://snomed.info/sct",
              "code": "84229001",
              "display": "Fatigue"
            }
          ],
          "text": "Fatigue"
        },
        "subject": {
          "reference": "Patient/e5142052-7f0a-42f6-b5a4-d9b224b6492f"
        },
        "encounter": {
          "reference": "Encounter/b2659147-c534-4449-8605-d855a5e38264"
        },
        "effectivePeriod": {
          "start": "2025-10-16"
        },
        "valueBoolean": true,
        "interpretation": [
          {
            "coding": [
              {
                "system": "http://terminology.hl7.org/CodeSystem/v3-ObservationInterpretation",
                "code": "A",
                "display": "Abnormal"
              }
            ],
            "text": "Abnormal"
          }
        ],
        "note": [
          {
            "text": "Definition: https://snomed.info/id/84229001"
          }
        ]
      },
      "request": {
        "method": "POST",
        "url": "Observation"
      }
    },
    {
      "fullUrl": "urn:uuid:a2d1a098-c717-474f-b8da-c02ddda4eb8e",
      "resource": {
        "resourceType": "Observation",
        "id": "a2d1a098-c717-474f-b8da-c02ddda4eb8e",
        "status": "final",
        "category": [
          {
            "coding": [
              {
                "system": "http://terminology.hl7.org/CodeSystem/observation-category",
                "code": "exam",
                "display": "Exam"
              }
            ],
            "text": "Exam"
          }
        ],
        "code": {
          "coding": [
            {
              "system": "http://snomed.info/sct",
              "code": "42984000",
              "display": "Night sweats"
            }
          ],
          "text": "Night Sweats"
        },
        "subject": {
          "reference": "Patient/e5142052-7f0a-42f6-b5a4-d9b224b6492f"
        },
        "encounter": {
          "reference": "Encounter/b2659147-c534-4449-8605-d855a5e38264"
        },
        "effectivePeriod": {
          "start": "2025-10-16"
        },
        "valueBoolean": true,
        "note": [
          {
            "text": "Definition: https://snomed.info/id/42984000"
          }
        ]
      },
      "request": {
        "method": "POST",
        "url": "Observation"
      }
    },
    {
      "fullUrl": "urn:uuid:96f079d7-8715-48ed-abbe-7882f611e925",
      "resource": {
        "resourceType": "Observation",
        "id": "96f079d7-8715-48ed-abbe-7882f611e925",
        "status": "final",
        "category": [
          {
            "coding": [
              {
                "system": "http://terminology.hl7.org/CodeSystem/observation-category",
                "code": "exam",
                "display": "Exam"
              }
            ],
            "text": "Exam"
          }
        ],
        "code": {
          "coding": [
            {
              "system": "http://snomed.info/sct",
              "code": "64379006",
              "display": "Decrease in appetite"
            }
          ],
          "text": "Decrease in Appetite"
        },
        "subject": {
          "reference": "Patient/e5142052-7f0a-42f6-b5a4-d9b224b6492f"
        },
        "encounter": {
          "reference": "Encounter/b2659147-c534-4449-8605-d855a5e38264"
        },
        "effectivePeriod": {
          "start": "2025-10-16"
        },
        "valueBoolean": true,
        "note": [
          {
            "text": "Definition: https://snomed.info/id/64379006"
          }
        ]
      },
      "request": {
        "method": "POST",
        "url": "Observation"
      }
    },
    {
      "fullUrl": "urn:uuid:826d216f-b723-4d5c-8580-487baa780d40",
      "resource": {
        "resourceType": "Observation",
        "id": "826d216f-b723-4d5c-8580-487baa780d40",
        "status": "final",
        "category": [
          {
            "coding": [
              {
                "system": "http://terminology.hl7.org/CodeSystem/observation-category",
                "code": "vital-signs",
                "display": "Vital Signs"
              }
            ],
            "text": "Vital Signs"
          }
        ],
        "code": {
          "coding": [
            {
              "system": "http://loinc.org",
              "code": "8310-5",
              "display": "Body temperature"
            }
          ],
          "text": "temperature"
        },
        "subject": {
          "reference": "Patient/e5142052-7f0a-42f6-b5a4-d9b224b6492f"
        },
        "encounter": {
          "reference": "Encounter/b2659147-c534-4449-8605-d855a5e38264"
        },
        "effectiveDateTime": "2025-10-16",
        "valueQuantity": {
          "value": 100.2,
          "unit": "degrees Fahrenheit",
          "system": "http://unitsofmeasure.org",
          "code": "degrees Fahrenheit"
        },
        "interpretation": [
          {
            "coding": [
              {
                "system": "http://terminology.hl7.org/CodeSystem/v3-ObservationInterpretation",
                "code": "H",
                "display": "High"
              }
            ],
            "text": "High"
          }
        ]
      },
      "request": {
        "method": "POST",
        "url": "Observation"
      }
    },
    {
      "fullUrl": "urn:uuid:f5f1b671-38c6-4df1-8417-7e111c340a00",
      "resource": {
        "resourceType": "Observation",
        "id": "f5f1b671-38c6-4df1-8417-7e111c340a00",
        "status": "final",
        "category": [
          {
            "coding": [
              {
                "system": "http://terminology.hl7.org/CodeSystem/observation-category",
                "code": "vital-signs",
                "display": "Vital Signs"
              }
            ],
            "text": "Vital Signs"
          }
        ],
        "code": {
          "coding": [
            {
              "system": "http://loinc.org",
              "code": "62733-1",
              "display": "PhenX - respiratory - pulse oximetry - rest protocol 091101"
            }
          ],
          "text": "pulse"
        },
        "subject": {
          "reference": "Patient/e5142052-7f0a-42f6-b5a4-d9b224b6492f"
        },
        "encounter": {
          "reference": "Encounter/b2659147-c534-4449-8605-d855a5e38264"
        },
        "effectiveDateTime": "2025-10-16",
        "valueQuantity": {
          "value": 96.0,
          "unit": "beats per minute",
          "system": "http://unitsofmeasure.org",
          "code": "beats per minute"
        }
      },
      "request": {
        "method": "POST",
        "url": "Observation"
      }
    },
    {
      "fullUrl": "urn:uuid:b46489ad-2a58-4837-97d1-0b8240fb177f",
      "resource": {
        "resourceType": "Observation",
        "id": "b46489ad-2a58-4837-97d1-0b8240fb177f",
        "status": "final",
        "category": [
          {
            "coding": [
              {
                "system": "http://terminology.hl7.org/CodeSystem/observation-category",
                "code": "vital-signs",
                "display": "Vital Signs"
              }
            ],
            "text": "Vital Signs"
          }
        ],
        "code": {
          "coding": [
            {
              "system": "http://loinc.org",
              "code": "18684-1",
              "display": "Blood pressure"
            }
          ],
          "text": "blood pressure"
        },
        "subject": {
          "reference": "Patient/e5142052-7f0a-42f6-b5a4-d9b224b6492f"
        },
        "encounter": {
          "reference": "Encounter/b2659147-c534-4449-8605-d855a5e38264"
        },
        "effectiveDateTime": "2025-10-16"
      },
      "request": {
        "method": "POST",
        "url": "Observation"
      }
    },
    {
      "fullUrl": "urn:uuid:1fc54978-d57e-4f43-af0e-2d2616f52e55",
      "resource": {
        "resourceType": "Observation",
        "id": "1fc54978-d57e-4f43-af0e-2d2616f52e55",
        "status": "final",
        "category": [
          {
            "coding": [
              {
                "system": "http://terminology.hl7.org/CodeSystem/observation-category",
                "code": "vital-signs",
                "display": "Vital Signs"
              }
            ],
            "text": "Vital Signs"
          }
        ],
        "code": {
          "coding": [
            {
              "system": "http://loinc.org",
              "code": "9279-1",
              "display": "Resp rate"
            }
          ],
          "text": "respiratory rate"
        },
        "subject": {
          "reference": "Patient/e5142052-7f0a-42f6-b5a4-d9b224b6492f"
        },
        "encounter": {
          "reference": "Encounter/b2659147-c534-4449-8605-d855a5e38264"
        },
        "effectiveDateTime": "2025-10-16",
        "valueQuantity": {
          "value": 18.0,
          "unit": "breaths per minute",
          "system": "http://unitsofmeasure.org",
          "code": "breaths per minute"
        }
      },
      "request": {
        "method": "POST",
        "url": "Observation"
      }
    },
    {
      "fullUrl": "urn:uuid:766f46b7-fe9e-490a-8eb3-dc89e7a3ae36",
      "resource": {
        "resourceType": "Observation",
        "id": "766f46b7-fe9e-490a-8eb3-dc89e7a3ae36",
        "status": "final",
        "category": [
          {
            "coding": [
              {
                "system": "http://terminology.hl7.org/CodeSystem/observation-category",
                "code": "vital-signs",
                "display": "Vital Signs"
              }
            ],
            "text": "Vital Signs"
          }
        ],
        "code": {
          "coding": [
            {
              "system": "http://loinc.org",
              "code": "8337-8",
              "display": "Bdy weight special circumstances"
            }
          ],
          "text": "weight"
        },
        "subject": {
          "reference": "Patient/e5142052-7f0a-42f6-b5a4-d9b224b6492f"
        },
        "encounter": {
          "reference": "Encounter/b2659147-c534-4449-8605-d855a5e38264"
        },
        "effectiveDateTime": "2025-10-16",
        "valueQuantity": {
          "value": 125.0,
          "unit": "pounds",
          "system": "http://unitsofmeasure.org",
          "code": "pounds"
        }
      },
      "request": {
        "method": "POST",
        "url": "Observation"
      }
    },
    {
      "fullUrl": "urn:uuid:f5d0494c-1abf-4790-8e36-6b84a023f839",
      "resource": {
        "resourceType": "Observation",
        "id": "f5d0494c-1abf-4790-8e36-6b84a023f839",
        "status": "final",
        "category": [
          {
            "coding": [
              {
                "system": "http://terminology.hl7.org/CodeSystem/observation-category",
                "code": "vital-signs",
                "display": "Vital Signs"
              }
            ],
            "text": "Vital Signs"
          }
        ],
        "code": {
          "coding": [
            {
              "system": "http://loinc.org",
              "code": "92998-4",
              "display": "Lower segment"
            }
          ],
          "text": "height"
        },
        "subject": {
          "reference": "Patient/e5142052-7f0a-42f6-b5a4-d9b224b6492f"
        },
        "encounter": {
          "reference": "Encounter/b2659147-c534-4449-8605-d855a5e38264"
        },
        "effectiveDateTime": "2025-10-16"
      },
      "request": {
        "method": "POST",
        "url": "Observation"
      }
    },
    {
      "fullUrl": "urn:uuid:63d8bbc4-6b2b-4c14-a5c1-163ee8a9dc93",
      "resource": {
        "resourceType": "Observation",
        "id": "63d8bbc4-6b2b-4c14-a5c1-163ee8a9dc93",
        "status": "final",
        "category": [
          {
            "coding": [
              {
                "system": "http://terminology.hl7.org/CodeSystem/observation-category",
                "code": "vital-signs",
                "display": "Vital Signs"
              }
            ],
            "text": "Vital Signs"
          }
        ],
        "code": {
          "coding": [
            {
              "system": "http://loinc.org",
              "code": "107102-6",
              "display": "BMI formula"
            }
          ],
          "text": "BMI"
        },
        "subject": {
          "reference": "Patient/e5142052-7f0a-42f6-b5a4-d9b224b6492f"
        },
        "encounter": {
          "reference": "Encounter/b2659147-c534-4449-8605-d855a5e38264"
        },
        "effectiveDateTime": "2025-10-16",
        "interpretation": [
          {
            "coding": [
              {
                "system": "http://terminology.hl7.org/CodeSystem/v3-ObservationInterpretation",
                "code": "N",
                "display": "Normal"
              }
            ],
            "text": "Normal"
          }
        ]
      },
      "request": {
        "method": "POST",
        "url": "Observation"
      }
    },
    {
      "fullUrl": "urn:uuid:7442415c-db4c-47f6-94bd-554218e62c3e",
      "resource": {
        "resourceType": "Observation",
        "id": "7442415c-db4c-47f6-94bd-554218e62c3e",
        "status": "final",
        "category": [
          {
            "coding": [
              {
                "system": "http://terminology.hl7.org/CodeSystem/observation-category",
                "code": "vital-signs",
                "display": "Vital Signs"
              }
            ],
            "text": "Vital Signs"
          }
        ],
        "code": {
          "coding": [
            {
              "system": "http://loinc.org",
              "code": "2717-7",
              "display": "OxyHgb MFr Plas"
            }
          ],
          "text": "oxygen saturation"
        },
        "subject": {
          "reference": "Patient/e5142052-7f0a-42f6-b5a4-d9b224b6492f"
        },
        "encounter": {
          "reference": "Encounter/b2659147-c534-4449-8605-d855a5e38264"
        },
        "effectiveDateTime": "2025-10-16",
        "valueQuantity": {
          "value": 98.0,
          "unit": "%",
          "system": "http://unitsofmeasure.org",
          "code": "%"
        },
        "interpretation": [
          {
            "coding": [
              {
                "system": "http://terminology.hl7.org/CodeSystem/v3-ObservationInterpretation",
                "code": "N",
                "display": "Normal"
              }
            ],
            "text": "Normal"
          }
        ]
      },
      "request": {
        "method": "POST",
        "url": "Observation"
      }
    },
    {
      "fullUrl": "urn:uuid:a528bd02-dc6d-413d-891d-516fedffbf81",
      "resource": {
        "resourceType": "MedicationStatement",
        "id": "a528bd02-dc6d-413d-891d-516fedffbf81",
        "status": "recorded",
        "medication": {
          "concept": {
            "coding": [
              {
                "system": "http://snomed.info/sct",
                "code": "387517004",
                "display": "Acetaminophen"
              }
            ],
            "text": "Acetaminophen"
          }
        },
        "subject": {
          "reference": "Patient/e5142052-7f0a-42f6-b5a4-d9b224b6492f"
        },
        "encounter": {
          "reference": "Encounter/b2659147-c534-4449-8605-d855a5e38264"
        },
        "effectiveDateTime": "2025-10-16",
        "informationSource": [
          {
            "reference": "Patient/e5142052-7f0a-42f6-b5a4-d9b224b6492f"
          }
        ],
        "dosage": [
          {
            "text": "650 milligrams every 4 hours as needed",
            "timing": {
              "repeat": {
                "frequency": 1,
                "period": 4.0
              }
            }
          }
        ],
        "adherence": {
          "code": {
            "coding": [
              {
                "system": "http://hl7.org/fhir/CodeSystem/medication-statement-adherence",
                "code": "taking",
                "display": "Taking"
              }
            ]
          }
        }
      },
      "request": {
        "method": "POST",
        "url": "MedicationStatement"
      }
    },
    {
      "fullUrl": "urn:uuid:de9dfd11-e482-4bed-9e76-fc6a6175f3a1",
      "resource": {
        "resourceType": "Encounter",
        "id": "de9dfd11-e482-4bed-9e76-fc6a6175f3a1",
        "identifier": [
          {
            "use": "temp",
            "value": "Encounter_Emily Wilson_20251023095527"
          }
        ],
        "status": "completed",
        "priority": {
          "coding": [
            {
              "system": "http://snomed.info/sct",
              "code": "17621005",
              "display": "Normal"
            }
          ]
        },
        "type": [
          {
            "coding": [
              {
                "system": "http://snomed.info/sct",
                "code": "11429006",
                "display": "Consultation"
              }
            ]
          }
        ],
        "subject": {
          "reference": "Patient/e5142052-7f0a-42f6-b5a4-d9b224b6492f",
          "display": "Emily Wilson"
        },
        "reason": [
          {
            "value": [
              {
                "concept": {
                  "text": "viral upper respiratory infection"
                }
              }
            ]
          }
        ]
      },
      "request": {
        "method": "POST",
        "url": "Encounter"
      }
    },
    {
      "fullUrl": "urn:uuid:c82d79f3-62fd-4e58-932c-7b6b6000f1c9",
      "resource": {
        "resourceType": "Observation",
        "id": "c82d79f3-62fd-4e58-932c-7b6b6000f1c9",
        "status": "final",
        "category": [
          {
            "coding": [
              {
                "system": "http://terminology.hl7.org/CodeSystem/observation-category",
                "code": "laboratory",
                "display": "Laboratory"
              }
            ],
            "text": "Laboratory"
          }
        ],
        "code": {
          "coding": [
            {
              "system": "http://loinc.org",
              "code": "58410-2",
              "display": "Complete blood count panel"
            }
          ],
          "text": "Complete Blood Count"
        },
        "subject": {
          "reference": "Patient/e5142052-7f0a-42f6-b5a4-d9b224b6492f"
        },
        "encounter": {
          "reference": "Encounter/de9dfd11-e482-4bed-9e76-fc6a6175f3a1"
        },
        "effectiveDateTime": "2025-08-16",
        "interpretation": [
          {
            "coding": [
              {
                "system": "http://terminology.hl7.org/CodeSystem/v3-ObservationInterpretation",
                "code": "N",
                "display": "Normal"
              }
            ]
          }
        ],
        "note": [
          {
            "text": "Definition: https://loinc.org/58410-2/"
          }
        ]
      },
      "request": {
        "method": "POST",
        "url": "Observation"
      }
    },
    {
      "fullUrl": "urn:uuid:6fb9e78d-e8c3-4ffb-934c-39b526cf2310",
      "resource": {
        "resourceType": "Observation",
        "id": "6fb9e78d-e8c3-4ffb-934c-39b526cf2310",
        "status": "final",
        "category": [
          {
            "coding": [
              {
                "system": "http://terminology.hl7.org/CodeSystem/observation-category",
                "code": "laboratory",
                "display": "Laboratory"
              }
            ],
            "text": "Laboratory"
          }
        ],
        "code": {
          "coding": [
            {
              "system": "http://loinc.org",
              "code": "unknown",
              "display": "Liver Function Tests"
            }
          ],
          "text": "Liver Function Tests"
        },
        "subject": {
          "reference": "Patient/e5142052-7f0a-42f6-b5a4-d9b224b6492f"
        },
        "encounter": {
          "reference": "Encounter/de9dfd11-e482-4bed-9e76-fc6a6175f3a1"
        },
        "effectiveDateTime": "2025-08-16",
        "interpretation": [
          {
            "coding": [
              {
                "system": "http://terminology.hl7.org/CodeSystem/v3-ObservationInterpretation",
                "code": "N",
                "display": "Normal"
              }
            ]
          }
        ]
      },
      "request": {
        "method": "POST",
        "url": "Observation"
      }
    },
    {
      "fullUrl": "urn:uuid:1c942bae-a808-4131-9dd3-83c05003942a",
      "resource": {
        "resourceType": "Observation",
        "id": "1c942bae-a808-4131-9dd3-83c05003942a",
        "status": "final",
        "category": [
          {
            "coding": [
              {
                "system": "http://terminology.hl7.org/CodeSystem/observation-category",
                "code": "exam",
                "display": "Exam"
              }
            ],
            "text": "Exam"
          }
        ],
        "code": {
          "coding": [
            {
              "system": "http://snomed.info/sct",
              "code": "54150009",
              "display": "Upper respiratory infection"
            }
          ],
          "text": "Upper Respiratory Infection"
        },
        "subject": {
          "reference": "Patient/e5142052-7f0a-42f6-b5a4-d9b224b6492f"
        },
        "encounter": {
          "reference": "Encounter/de9dfd11-e482-4bed-9e76-fc6a6175f3a1"
        },
        "effectivePeriod": {
          "start": "2025-08-16"
        },
        "valueBoolean": true,
        "interpretation": [
          {
            "coding": [
              {
                "system": "http://terminology.hl7.org/CodeSystem/v3-ObservationInterpretation",
                "code": "A",
                "display": "Abnormal"
              }
            ],
            "text": "Abnormal"
          }
        ],
        "note": [
          {
            "text": "Definition: https://snomed.info/id/54150009"
          }
        ]
      },
      "request": {
        "method": "POST",
        "url": "Observation"
      }
    },
    {
      "fullUrl": "urn:uuid:5a83ebf4-cd13-49bd-9164-ce4edec7d9cd",
      "resource": {
        "resourceType": "List",
        "id": "5a83ebf4-cd13-49bd-9164-ce4edec7d9cd",
        "contained": [
          {
            "resourceType": "FamilyMemberHistory",
            "id": "fmh-1",
            "status": "completed",
            "patient": {
              "reference": "Patient/e5142052-7f0a-42f6-b5a4-d9b224b6492f"
            },
            "relationship": {
              "coding": [
                {
                  "system": "http://snomed.info/sct",
                  "code": "72705000",
                  "display": "Mother"
                }
              ]
            },
            "deceasedBoolean": false,
            "condition": [
              {
                "code": {
                  "coding": [
                    {
                      "system": "http://snomed.info/sct",
                      "code": "55464009",
                      "display": "Systemic lupus erythematosus"
                    }
                  ]
                },
                "outcome": {
                  "coding": [
                    {
                      "system": "http://snomed.info/sct",
                      "code": "440706004",
                      "display": "Full renal function recovered"
                    }
                  ]
                }
              }
            ]
          }
        ],
        "status": "current",
        "mode": "snapshot",
        "code": {
          "coding": [
            {
              "system": "http://loinc.org",
              "code": "8670-2",
              "display": "History of family member diseases"
            }
          ]
        },
        "subject": [
          {
            "reference": "Patient/e5142052-7f0a-42f6-b5a4-d9b224b6492f"
          }
        ],
        "note": [
          {
            "text": "Both parents are alive and healthy otherwise, with no known family history of hematologic or autoimmune disorders."
          }
        ],
        "entry": [
          {
            "item": {
              "reference": "#fmh-1"
            }
          }
        ]
      },
      "request": {
        "method": "POST",
        "url": "FamilyMemberHistory"
      }
    }
  ]
}