{
  "resourceType": "Bundle",
  "type": "transaction",
  "entry": [
    {
      "fullUrl": "urn:uuid:cf768c48-efb0-4fbb-b978-cf1cf1490869",
      "resource": {
        "resourceType": "Patient",
        "id": "cf768c48-efb0-4fbb-b978-cf1cf1490869",
        "name": [
          {
            "family": "Ivanov",
            "given": [
              "Pavel"
            ]
          }
        ],
        "gender": "male",
        "birthDate": "1984-01-01",
        "address": [
          {}
        ]
      },
      "request": {
        "method": "POST",
        "url": "Patient"
      }
    },
    {
      "fullUrl": "urn:uuid:d8f3515f-b86d-4ee9-9186-d91952e82ce3",
      "resource": {
        "resourceType": "Encounter",
        "id": "d8f3515f-b86d-4ee9-9186-d91952e82ce3",
        "identifier": [
          {
            "use": "temp",
            "value": "Encounter_Pavel Ivanov_20251023103257"
          }
        ],
        "status": "completed",
        "priority": {
          "coding": [
            {
              "system": "http://snomed.info/sct",
              "code": "17621005",
              "display": "Normal"
            }
          ]
        },
        "type": [
          {
            "coding": [
              {
                "system": "http://snomed.info/sct",
                "code": "11429006",
                "display": "Consultation"
              }
            ]
          }
        ],
        "subject": {
          "reference": "Patient/cf768c48-efb0-4fbb-b978-cf1cf1490869",
          "display": "Pavel Ivanov"
        },
        "reason": [
          {
            "value": [
              {
                "concept": {
                  "text": "intermittent headaches and a gradual increase in shoe and ring size over the past two years"
                }
              }
            ]
          }
        ]
      },
      "request": {
        "method": "POST",
        "url": "Encounter"
      }
    },
    {
      "fullUrl": "urn:uuid:51ca2407-484b-49d5-810c-0bb878fe8415",
      "resource": {
        "resourceType": "Observation",
        "id": "51ca2407-484b-49d5-810c-0bb878fe8415",
        "status": "final",
        "category": [
          {
            "coding": [
              {
                "system": "http://terminology.hl7.org/CodeSystem/observation-category",
                "code": "laboratory",
                "display": "Laboratory"
              }
            ],
            "text": "Laboratory"
          }
        ],
        "code": {
          "coding": [
            {
              "system": "http://loinc.org",
              "code": "74790-7",
              "display": "Glucose challenge panel"
            }
          ],
          "text": "Glucose"
        },
        "subject": {
          "reference": "Patient/cf768c48-efb0-4fbb-b978-cf1cf1490869"
        },
        "encounter": {
          "reference": "Encounter/d8f3515f-b86d-4ee9-9186-d91952e82ce3"
        },
        "effectiveDateTime": "2025-10-16",
        "valueQuantity": {
          "value": 6.3,
          "unit": "mmol/L",
          "system": "http://unitsofmeasure.org",
          "code": "mmol/L"
        },
        "interpretation": [
          {
            "coding": [
              {
                "system": "http://terminology.hl7.org/CodeSystem/v3-ObservationInterpretation",
                "code": "H",
                "display": "High"
              }
            ]
          }
        ],
        "note": [
          {
            "text": "Definition: https://loinc.org/74790-7/"
          }
        ]
      },
      "request": {
        "method": "POST",
        "url": "Observation"
      }
    },
    {
      "fullUrl": "urn:uuid:3478cb2a-8e8f-4137-8eef-e594eb80c1f8",
      "resource": {
        "resourceType": "Observation",
        "id": "3478cb2a-8e8f-4137-8eef-e594eb80c1f8",
        "status": "final",
        "category": [
          {
            "coding": [
              {
                "system": "http://terminology.hl7.org/CodeSystem/observation-category",
                "code": "laboratory",
                "display": "Laboratory"
              }
            ],
            "text": "Laboratory"
          }
        ],
        "code": {
          "coding": [
            {
              "system": "http://loinc.org",
              "code": "55454-3",
              "display": "Deprecated Hgb A1c Bld"
            }
          ],
          "text": "Hemoglobin A1c"
        },
        "subject": {
          "reference": "Patient/cf768c48-efb0-4fbb-b978-cf1cf1490869"
        },
        "encounter": {
          "reference": "Encounter/d8f3515f-b86d-4ee9-9186-d91952e82ce3"
        },
        "effectiveDateTime": "2025-10-16",
        "valueQuantity": {
          "value": 6.0,
          "unit": "%",
          "system": "http://unitsofmeasure.org",
          "code": "%"
        },
        "interpretation": [
          {
            "coding": [
              {
                "system": "http://terminology.hl7.org/CodeSystem/v3-ObservationInterpretation",
                "code": "A",
                "display": "Abnormal"
              }
            ]
          }
        ],
        "note": [
          {
            "text": "Definition: https://loinc.org/55454-3/"
          }
        ]
      },
      "request": {
        "method": "POST",
        "url": "Observation"
      }
    },
    {
      "fullUrl": "urn:uuid:e3321c25-9634-4521-98f1-cfc120eb0faf",
      "resource": {
        "resourceType": "Observation",
        "id": "e3321c25-9634-4521-98f1-cfc120eb0faf",
        "status": "final",
        "category": [
          {
            "coding": [
              {
                "system": "http://terminology.hl7.org/CodeSystem/observation-category",
                "code": "exam",
                "display": "Exam"
              }
            ],
            "text": "Exam"
          }
        ],
        "code": {
          "coding": [
            {
              "system": "http://snomed.info/sct"
            }
          ],
          "text": "Headaches"
        },
        "subject": {
          "reference": "Patient/cf768c48-efb0-4fbb-b978-cf1cf1490869"
        },
        "encounter": {
          "reference": "Encounter/d8f3515f-b86d-4ee9-9186-d91952e82ce3"
        },
        "effectivePeriod": {
          "start": "2025-10-16"
        },
        "valueBoolean": true,
        "note": [
          {
            "text": "Definition: https://snomed.info/id/None"
          }
        ]
      },
      "request": {
        "method": "POST",
        "url": "Observation"
      }
    },
    {
      "fullUrl": "urn:uuid:8074c660-ae3d-401a-8e51-ea5bc0c8256c",
      "resource": {
        "resourceType": "Observation",
        "id": "8074c660-ae3d-401a-8e51-ea5bc0c8256c",
        "status": "final",
        "category": [
          {
            "coding": [
              {
                "system": "http://terminology.hl7.org/CodeSystem/observation-category",
                "code": "exam",
                "display": "Exam"
              }
            ],
            "text": "Exam"
          }
        ],
        "code": {
          "coding": [
            {
              "system": "http://snomed.info/sct",
              "code": "247347003",
              "display": "Discomfort"
            }
          ],
          "text": "Joint discomfort"
        },
        "subject": {
          "reference": "Patient/cf768c48-efb0-4fbb-b978-cf1cf1490869"
        },
        "encounter": {
          "reference": "Encounter/d8f3515f-b86d-4ee9-9186-d91952e82ce3"
        },
        "effectivePeriod": {
          "start": "2025-10-16"
        },
        "valueBoolean": true,
        "note": [
          {
            "text": "Definition: https://snomed.info/id/247347003"
          }
        ]
      },
      "request": {
        "method": "POST",
        "url": "Observation"
      }
    },
    {
      "fullUrl": "urn:uuid:8455946b-cea4-4ea2-8734-4a47b5c3cb14",
      "resource": {
        "resourceType": "Observation",
        "id": "8455946b-cea4-4ea2-8734-4a47b5c3cb14",
        "status": "final",
        "category": [
          {
            "coding": [
              {
                "system": "http://terminology.hl7.org/CodeSystem/observation-category",
                "code": "vital-signs",
                "display": "Vital Signs"
              }
            ],
            "text": "Vital Signs"
          }
        ],
        "code": {
          "coding": [
            {
              "system": "http://loinc.org",
              "code": "18684-1",
              "display": "Blood pressure"
            }
          ],
          "text": "blood pressure"
        },
        "subject": {
          "reference": "Patient/cf768c48-efb0-4fbb-b978-cf1cf1490869"
        },
        "encounter": {
          "reference": "Encounter/d8f3515f-b86d-4ee9-9186-d91952e82ce3"
        },
        "effectiveDateTime": "2025-10-16",
        "valueQuantity": {
          "value": 138.0,
          "unit": "mmHg",
          "system": "http://unitsofmeasure.org",
          "code": "mmHg"
        },
        "interpretation": [
          {
            "coding": [
              {
                "system": "http://terminology.hl7.org/CodeSystem/v3-ObservationInterpretation",
                "code": "H",
                "display": "High"
              }
            ],
            "text": "High"
          }
        ]
      },
      "request": {
        "method": "POST",
        "url": "Observation"
      }
    },
    {
      "fullUrl": "urn:uuid:8bb41e8d-a5b9-4a81-a54f-86508b7fe571",
      "resource": {
        "resourceType": "Observation",
        "id": "8bb41e8d-a5b9-4a81-a54f-86508b7fe571",
        "status": "final",
        "category": [
          {
            "coding": [
              {
                "system": "http://terminology.hl7.org/CodeSystem/observation-category",
                "code": "vital-signs",
                "display": "Vital Signs"
              }
            ],
            "text": "Vital Signs"
          }
        ],
        "code": {
          "coding": [
            {
              "system": "http://loinc.org",
              "code": "62733-1",
              "display": "PhenX - respiratory - pulse oximetry - rest protocol 091101"
            }
          ],
          "text": "pulse"
        },
        "subject": {
          "reference": "Patient/cf768c48-efb0-4fbb-b978-cf1cf1490869"
        },
        "encounter": {
          "reference": "Encounter/d8f3515f-b86d-4ee9-9186-d91952e82ce3"
        },
        "effectiveDateTime": "2025-10-16",
        "valueQuantity": {
          "value": 76.0,
          "unit": "bpm",
          "system": "http://unitsofmeasure.org",
          "code": "bpm"
        },
        "interpretation": [
          {
            "coding": [
              {
                "system": "http://terminology.hl7.org/CodeSystem/v3-ObservationInterpretation",
                "code": "N",
                "display": "Normal"
              }
            ],
            "text": "Normal"
          }
        ]
      },
      "request": {
        "method": "POST",
        "url": "Observation"
      }
    },
    {
      "fullUrl": "urn:uuid:740b4fce-a503-4bdc-8a6e-f47aead29569",
      "resource": {
        "resourceType": "Observation",
        "id": "740b4fce-a503-4bdc-8a6e-f47aead29569",
        "status": "final",
        "category": [
          {
            "coding": [
              {
                "system": "http://terminology.hl7.org/CodeSystem/observation-category",
                "code": "vital-signs",
                "display": "Vital Signs"
              }
            ],
            "text": "Vital Signs"
          }
        ],
        "code": {
          "coding": [
            {
              "system": "http://loinc.org",
              "code": "92998-4",
              "display": "Lower segment"
            }
          ],
          "text": "height"
        },
        "subject": {
          "reference": "Patient/cf768c48-efb0-4fbb-b978-cf1cf1490869"
        },
        "encounter": {
          "reference": "Encounter/d8f3515f-b86d-4ee9-9186-d91952e82ce3"
        },
        "effectiveDateTime": "2025-10-16",
        "valueQuantity": {
          "value": 180.0,
          "unit": "cm",
          "system": "http://unitsofmeasure.org",
          "code": "cm"
        }
      },
      "request": {
        "method": "POST",
        "url": "Observation"
      }
    },
    {
      "fullUrl": "urn:uuid:1dac98e9-7451-4a20-b5fd-e1508b46567b",
      "resource": {
        "resourceType": "Observation",
        "id": "1dac98e9-7451-4a20-b5fd-e1508b46567b",
        "status": "final",
        "category": [
          {
            "coding": [
              {
                "system": "http://terminology.hl7.org/CodeSystem/observation-category",
                "code": "vital-signs",
                "display": "Vital Signs"
              }
            ],
            "text": "Vital Signs"
          }
        ],
        "code": {
          "coding": [
            {
              "system": "http://loinc.org",
              "code": "8337-8",
              "display": "Bdy weight special circumstances"
            }
          ],
          "text": "weight"
        },
        "subject": {
          "reference": "Patient/cf768c48-efb0-4fbb-b978-cf1cf1490869"
        },
        "encounter": {
          "reference": "Encounter/d8f3515f-b86d-4ee9-9186-d91952e82ce3"
        },
        "effectiveDateTime": "2025-10-16",
        "valueQuantity": {
          "value": 92.0,
          "unit": "kg",
          "system": "http://unitsofmeasure.org",
          "code": "kg"
        }
      },
      "request": {
        "method": "POST",
        "url": "Observation"
      }
    },
    {
      "fullUrl": "urn:uuid:8c079004-5062-4dcd-8b4f-f2c794fcb799",
      "resource": {
        "resourceType": "Observation",
        "id": "8c079004-5062-4dcd-8b4f-f2c794fcb799",
        "status": "final",
        "category": [
          {
            "coding": [
              {
                "system": "http://terminology.hl7.org/CodeSystem/observation-category",
                "code": "vital-signs",
                "display": "Vital Signs"
              }
            ],
            "text": "Vital Signs"
          }
        ],
        "code": {
          "coding": [
            {
              "system": "http://loinc.org",
              "code": "107102-6",
              "display": "BMI formula"
            }
          ],
          "text": "BMI"
        },
        "subject": {
          "reference": "Patient/cf768c48-efb0-4fbb-b978-cf1cf1490869"
        },
        "encounter": {
          "reference": "Encounter/d8f3515f-b86d-4ee9-9186-d91952e82ce3"
        },
        "effectiveDateTime": "2025-10-16",
        "valueQuantity": {
          "value": 28.4,
          "unit": "kg/m²",
          "system": "http://unitsofmeasure.org",
          "code": "kg/m²"
        },
        "interpretation": [
          {
            "coding": [
              {
                "system": "http://terminology.hl7.org/CodeSystem/v3-ObservationInterpretation",
                "code": "A",
                "display": "Abnormal"
              }
            ],
            "text": "Abnormal"
          }
        ]
      },
      "request": {
        "method": "POST",
        "url": "Observation"
      }
    },
    {
      "fullUrl": "urn:uuid:60520611-ff5b-4906-b233-d7da68b3b583",
      "resource": {
        "resourceType": "List",
        "id": "60520611-ff5b-4906-b233-d7da68b3b583",
        "contained": [
          {
            "resourceType": "FamilyMemberHistory",
            "id": "fmh-2",
            "status": "completed",
            "patient": {
              "reference": "Patient/cf768c48-efb0-4fbb-b978-cf1cf1490869"
            },
            "relationship": {
              "coding": [
                {
                  "system": "http://snomed.info/sct",
                  "code": "72705000",
                  "display": "Mother"
                }
              ]
            },
            "deceasedBoolean": false,
            "condition": []
          }
        ],
        "status": "current",
        "mode": "snapshot",
        "code": {
          "coding": [
            {
              "system": "http://loinc.org",
              "code": "8670-2",
              "display": "History of family member diseases"
            }
          ]
        },
        "subject": [
          {
            "reference": "Patient/cf768c48-efb0-4fbb-b978-cf1cf1490869"
          }
        ],
        "note": [
          {
            "text": "No family history of endocrine disorders"
          }
        ],
        "entry": [
          {
            "item": {
              "reference": "#fmh-2"
            }
          }
        ]
      },
      "request": {
        "method": "POST",
        "url": "FamilyMemberHistory"
      }
    }
  ]
}