{
  "resourceType": "Bundle",
  "type": "transaction",
  "entry": [
    {
      "fullUrl": "urn:uuid:4b367e39-a119-4cce-9933-f976959052c7",
      "resource": {
        "resourceType": "Patient",
        "id": "4b367e39-a119-4cce-9933-f976959052c7",
        "name": [
          {
            "family": "Ivanov",
            "given": [
              "Andrei"
            ]
          }
        ],
        "gender": "male",
        "birthDate": "2009-01-01",
        "address": [
          {}
        ]
      },
      "request": {
        "method": "POST",
        "url": "Patient"
      }
    },
    {
      "fullUrl": "urn:uuid:47082511-ccd0-4972-887f-8d3ed360c168",
      "resource": {
        "resourceType": "Encounter",
        "id": "47082511-ccd0-4972-887f-8d3ed360c168",
        "identifier": [
          {
            "use": "temp",
            "value": "Encounter_Andrei Ivanov_20251022152053"
          }
        ],
        "status": "completed",
        "priority": {
          "coding": [
            {
              "system": "http://snomed.info/sct",
              "code": "17621005",
              "display": "Normal"
            }
          ]
        },
        "type": [
          {
            "coding": [
              {
                "system": "http://snomed.info/sct",
                "code": "11429006",
                "display": "Consultation"
              }
            ]
          }
        ],
        "subject": {
          "reference": "Patient/4b367e39-a119-4cce-9933-f976959052c7",
          "display": "Andrei Ivanov"
        },
        "reason": [
          {
            "value": [
              {
                "concept": {
                  "text": "persistent fatigue and occasional mild abdominal discomfort"
                }
              }
            ]
          }
        ]
      },
      "request": {
        "method": "POST",
        "url": "Encounter"
      }
    },
    {
      "fullUrl": "urn:uuid:41777416-869b-4ec5-a5f4-b578c41c2158",
      "resource": {
        "resourceType": "Observation",
        "id": "41777416-869b-4ec5-a5f4-b578c41c2158",
        "status": "final",
        "category": [
          {
            "coding": [
              {
                "system": "http://terminology.hl7.org/CodeSystem/observation-category",
                "code": "laboratory",
                "display": "Laboratory"
              }
            ],
            "text": "Laboratory"
          }
        ],
        "code": {
          "coding": [
            {
              "system": "http://loinc.org",
              "code": "93005-7",
              "display": "Rapid alt hand move - L+R mean Score"
            }
          ],
          "text": "ALT"
        },
        "subject": {
          "reference": "Patient/4b367e39-a119-4cce-9933-f976959052c7"
        },
        "encounter": {
          "reference": "Encounter/47082511-ccd0-4972-887f-8d3ed360c168"
        },
        "effectiveDateTime": "2025-10-16",
        "interpretation": [
          {
            "coding": [
              {
                "system": "http://terminology.hl7.org/CodeSystem/v3-ObservationInterpretation",
                "code": "H",
                "display": "High"
              }
            ]
          }
        ],
        "note": [
          {
            "text": "Definition: https://loinc.org/93005-7/"
          }
        ]
      },
      "request": {
        "method": "POST",
        "url": "Observation"
      }
    },
    {
      "fullUrl": "urn:uuid:3acedd5c-bd68-4f88-ae52-5247d48f2df9",
      "resource": {
        "resourceType": "Observation",
        "id": "3acedd5c-bd68-4f88-ae52-5247d48f2df9",
        "status": "final",
        "category": [
          {
            "coding": [
              {
                "system": "http://terminology.hl7.org/CodeSystem/observation-category",
                "code": "laboratory",
                "display": "Laboratory"
              }
            ],
            "text": "Laboratory"
          }
        ],
        "code": {
          "coding": [
            {
              "system": "http://loinc.org",
              "code": "1917-4",
              "display": "AST Amn-cCnc"
            }
          ],
          "text": "AST"
        },
        "subject": {
          "reference": "Patient/4b367e39-a119-4cce-9933-f976959052c7"
        },
        "encounter": {
          "reference": "Encounter/47082511-ccd0-4972-887f-8d3ed360c168"
        },
        "effectiveDateTime": "2025-10-16",
        "interpretation": [
          {
            "coding": [
              {
                "system": "http://terminology.hl7.org/CodeSystem/v3-ObservationInterpretation",
                "code": "H",
                "display": "High"
              }
            ]
          }
        ],
        "note": [
          {
            "text": "Definition: https://loinc.org/1917-4/"
          }
        ]
      },
      "request": {
        "method": "POST",
        "url": "Observation"
      }
    },
    {
      "fullUrl": "urn:uuid:64b5c303-c6d7-454d-b0b3-b55f725bb414",
      "resource": {
        "resourceType": "Observation",
        "id": "64b5c303-c6d7-454d-b0b3-b55f725bb414",
        "status": "final",
        "category": [
          {
            "coding": [
              {
                "system": "http://terminology.hl7.org/CodeSystem/observation-category",
                "code": "laboratory",
                "display": "Laboratory"
              }
            ],
            "text": "Laboratory"
          }
        ],
        "code": {
          "coding": [
            {
              "system": "http://loinc.org",
              "code": "34543-9",
              "display": "Bilirubin direct & total panel"
            }
          ],
          "text": "Total Bilirubin"
        },
        "subject": {
          "reference": "Patient/4b367e39-a119-4cce-9933-f976959052c7"
        },
        "encounter": {
          "reference": "Encounter/47082511-ccd0-4972-887f-8d3ed360c168"
        },
        "effectiveDateTime": "2025-10-16",
        "interpretation": [
          {
            "coding": [
              {
                "system": "http://terminology.hl7.org/CodeSystem/v3-ObservationInterpretation",
                "code": "A",
                "display": "Abnormal"
              }
            ]
          }
        ],
        "note": [
          {
            "text": "Definition: https://loinc.org/34543-9/"
          }
        ]
      },
      "request": {
        "method": "POST",
        "url": "Observation"
      }
    },
    {
      "fullUrl": "urn:uuid:a49364dd-3393-45b6-a97b-591eed128d0b",
      "resource": {
        "resourceType": "Observation",
        "id": "a49364dd-3393-45b6-a97b-591eed128d0b",
        "status": "final",
        "category": [
          {
            "coding": [
              {
                "system": "http://terminology.hl7.org/CodeSystem/observation-category",
                "code": "laboratory",
                "display": "Laboratory"
              }
            ],
            "text": "Laboratory"
          }
        ],
        "code": {
          "coding": [
            {
              "system": "http://loinc.org",
              "code": "2064-4",
              "display": "Ceruloplasmin SerPl-mCnc"
            }
          ],
          "text": "Serum Ceruloplasmin"
        },
        "subject": {
          "reference": "Patient/4b367e39-a119-4cce-9933-f976959052c7"
        },
        "encounter": {
          "reference": "Encounter/47082511-ccd0-4972-887f-8d3ed360c168"
        },
        "effectiveDateTime": "2025-10-16",
        "valueQuantity": {
          "value": 12.0,
          "unit": "mg/dL",
          "system": "http://unitsofmeasure.org",
          "code": "mg/dL"
        },
        "interpretation": [
          {
            "coding": [
              {
                "system": "http://terminology.hl7.org/CodeSystem/v3-ObservationInterpretation",
                "code": "L",
                "display": "Low"
              }
            ]
          }
        ],
        "note": [
          {
            "text": "Definition: https://loinc.org/2064-4/"
          }
        ]
      },
      "request": {
        "method": "POST",
        "url": "Observation"
      }
    },
    {
      "fullUrl": "urn:uuid:56d60ed9-35ce-40ce-95b0-1e278fa4c96d",
      "resource": {
        "resourceType": "Observation",
        "id": "56d60ed9-35ce-40ce-95b0-1e278fa4c96d",
        "status": "final",
        "category": [
          {
            "coding": [
              {
                "system": "http://terminology.hl7.org/CodeSystem/observation-category",
                "code": "laboratory",
                "display": "Laboratory"
              }
            ],
            "text": "Laboratory"
          }
        ],
        "code": {
          "coding": [
            {
              "system": "http://loinc.org",
              "code": "unknown",
              "display": "24-hour Urinary Copper Excretion"
            }
          ],
          "text": "24-hour Urinary Copper Excretion"
        },
        "subject": {
          "reference": "Patient/4b367e39-a119-4cce-9933-f976959052c7"
        },
        "encounter": {
          "reference": "Encounter/47082511-ccd0-4972-887f-8d3ed360c168"
        },
        "effectiveDateTime": "2025-10-16",
        "valueQuantity": {
          "value": 150.0,
          "unit": "µg/24h",
          "system": "http://unitsofmeasure.org",
          "code": "µg/24h"
        },
        "interpretation": [
          {
            "coding": [
              {
                "system": "http://terminology.hl7.org/CodeSystem/v3-ObservationInterpretation",
                "code": "H",
                "display": "High"
              }
            ]
          }
        ]
      },
      "request": {
        "method": "POST",
        "url": "Observation"
      }
    },
    {
      "fullUrl": "urn:uuid:c681320d-839e-4655-ba34-c1cb7af79753",
      "resource": {
        "resourceType": "Observation",
        "id": "c681320d-839e-4655-ba34-c1cb7af79753",
        "status": "final",
        "category": [
          {
            "coding": [
              {
                "system": "http://terminology.hl7.org/CodeSystem/observation-category",
                "code": "exam",
                "display": "Exam"
              }
            ],
            "text": "Exam"
          }
        ],
        "code": {
          "coding": [
            {
              "system": "http://snomed.info/sct",
              "code": "84229001",
              "display": "Fatigue"
            }
          ],
          "text": "Fatigue"
        },
        "subject": {
          "reference": "Patient/4b367e39-a119-4cce-9933-f976959052c7"
        },
        "encounter": {
          "reference": "Encounter/47082511-ccd0-4972-887f-8d3ed360c168"
        },
        "effectivePeriod": {
          "start": "2025-10-16"
        },
        "valueBoolean": true,
        "note": [
          {
            "text": "Definition: https://snomed.info/id/84229001"
          }
        ]
      },
      "request": {
        "method": "POST",
        "url": "Observation"
      }
    },
    {
      "fullUrl": "urn:uuid:2ef48ef5-aae2-48de-86ec-cd795fbb916d",
      "resource": {
        "resourceType": "Observation",
        "id": "2ef48ef5-aae2-48de-86ec-cd795fbb916d",
        "status": "final",
        "category": [
          {
            "coding": [
              {
                "system": "http://terminology.hl7.org/CodeSystem/observation-category",
                "code": "exam",
                "display": "Exam"
              }
            ],
            "text": "Exam"
          }
        ],
        "code": {
          "coding": [
            {
              "system": "http://snomed.info/sct",
              "code": "43364001",
              "display": "Abdominal discomfort"
            }
          ],
          "text": "Abdominal Discomfort"
        },
        "subject": {
          "reference": "Patient/4b367e39-a119-4cce-9933-f976959052c7"
        },
        "encounter": {
          "reference": "Encounter/47082511-ccd0-4972-887f-8d3ed360c168"
        },
        "effectivePeriod": {
          "start": "2025-10-16"
        },
        "valueBoolean": true,
        "note": [
          {
            "text": "Definition: https://snomed.info/id/43364001"
          }
        ]
      },
      "request": {
        "method": "POST",
        "url": "Observation"
      }
    },
    {
      "fullUrl": "urn:uuid:c029a8d8-db97-4308-876c-d3fc43d7a68a",
      "resource": {
        "resourceType": "Observation",
        "id": "c029a8d8-db97-4308-876c-d3fc43d7a68a",
        "status": "final",
        "category": [
          {
            "coding": [
              {
                "system": "http://terminology.hl7.org/CodeSystem/observation-category",
                "code": "exam",
                "display": "Exam"
              }
            ],
            "text": "Exam"
          }
        ],
        "code": {
          "coding": [
            {
              "system": "http://snomed.info/sct",
              "code": "246975001",
              "display": "Scleral icterus"
            }
          ],
          "text": "Scleral Icterus"
        },
        "subject": {
          "reference": "Patient/4b367e39-a119-4cce-9933-f976959052c7"
        },
        "encounter": {
          "reference": "Encounter/47082511-ccd0-4972-887f-8d3ed360c168"
        },
        "effectivePeriod": {
          "start": "2025-10-16"
        },
        "valueBoolean": true,
        "note": [
          {
            "text": "Definition: https://snomed.info/id/246975001"
          }
        ]
      },
      "request": {
        "method": "POST",
        "url": "Observation"
      }
    }
  ]
}