{
  "resourceType": "Bundle",
  "type": "transaction",
  "entry": [
    {
      "fullUrl": "urn:uuid:f1fe8676-1a6e-48ce-ad79-860a8d7d493b",
      "resource": {
        "resourceType": "Patient",
        "id": "f1fe8676-1a6e-48ce-ad79-860a8d7d493b",
        "name": [
          {
            "family": "Ivanov",
            "given": [
              "Andrei"
            ]
          }
        ],
        "gender": "male",
        "birthDate": "2009-01-01",
        "address": [
          {}
        ]
      },
      "request": {
        "method": "POST",
        "url": "Patient"
      }
    },
    {
      "fullUrl": "urn:uuid:7e5808a4-2c7a-4993-b4b3-558460feab41",
      "resource": {
        "resourceType": "Encounter",
        "id": "7e5808a4-2c7a-4993-b4b3-558460feab41",
        "identifier": [
          {
            "use": "temp",
            "value": "Encounter_Andrei Ivanov_20251020132534"
          }
        ],
        "status": "completed",
        "priority": {
          "coding": [
            {
              "system": "http://snomed.info/sct",
              "code": "17621005",
              "display": "Normal"
            }
          ]
        },
        "type": [
          {
            "coding": [
              {
                "system": "http://snomed.info/sct",
                "code": "11429006",
                "display": "Consultation"
              }
            ]
          }
        ],
        "subject": {
          "reference": "Patient/f1fe8676-1a6e-48ce-ad79-860a8d7d493b",
          "display": "Andrei Ivanov"
        },
        "reason": [
          {
            "value": [
              {
                "concept": {
                  "text": "persistent fatigue and occasional mild abdominal discomfort"
                }
              }
            ]
          }
        ]
      },
      "request": {
        "method": "POST",
        "url": "Encounter"
      }
    },
    {
      "fullUrl": "urn:uuid:578b4122-a722-484e-9e02-03504e93fbe3",
      "resource": {
        "resourceType": "Observation",
        "id": "578b4122-a722-484e-9e02-03504e93fbe3",
        "status": "final",
        "category": [
          {
            "coding": [
              {
                "system": "http://terminology.hl7.org/CodeSystem/observation-category",
                "code": "laboratory",
                "display": "Laboratory"
              }
            ],
            "text": "Laboratory"
          }
        ],
        "code": {
          "coding": [
            {
              "system": "http://loinc.org",
              "code": "93005-7",
              "display": "Rapid alt hand move - L+R mean Score"
            }
          ],
          "text": "ALT"
        },
        "subject": {
          "reference": "Patient/f1fe8676-1a6e-48ce-ad79-860a8d7d493b"
        },
        "encounter": {
          "reference": "Encounter/7e5808a4-2c7a-4993-b4b3-558460feab41"
        },
        "effectiveDateTime": "2025-10-16",
        "interpretation": [
          {
            "coding": [
              {
                "system": "http://terminology.hl7.org/CodeSystem/v3-ObservationInterpretation",
                "code": "H",
                "display": "High"
              }
            ]
          }
        ],
        "note": [
          {
            "text": "Definition: https://loinc.org/93005-7/"
          }
        ]
      },
      "request": {
        "method": "POST",
        "url": "Observation"
      }
    },
    {
      "fullUrl": "urn:uuid:c75fe559-274d-42d5-a4a7-712460afeb96",
      "resource": {
        "resourceType": "Observation",
        "id": "c75fe559-274d-42d5-a4a7-712460afeb96",
        "status": "final",
        "category": [
          {
            "coding": [
              {
                "system": "http://terminology.hl7.org/CodeSystem/observation-category",
                "code": "laboratory",
                "display": "Laboratory"
              }
            ],
            "text": "Laboratory"
          }
        ],
        "code": {
          "coding": [
            {
              "system": "http://loinc.org",
              "code": "1917-4",
              "display": "AST Amn-cCnc"
            }
          ],
          "text": "AST"
        },
        "subject": {
          "reference": "Patient/f1fe8676-1a6e-48ce-ad79-860a8d7d493b"
        },
        "encounter": {
          "reference": "Encounter/7e5808a4-2c7a-4993-b4b3-558460feab41"
        },
        "effectiveDateTime": "2025-10-16",
        "interpretation": [
          {
            "coding": [
              {
                "system": "http://terminology.hl7.org/CodeSystem/v3-ObservationInterpretation",
                "code": "H",
                "display": "High"
              }
            ]
          }
        ],
        "note": [
          {
            "text": "Definition: https://loinc.org/1917-4/"
          }
        ]
      },
      "request": {
        "method": "POST",
        "url": "Observation"
      }
    },
    {
      "fullUrl": "urn:uuid:c2c02433-42b9-487a-b0f0-74624d911357",
      "resource": {
        "resourceType": "Observation",
        "id": "c2c02433-42b9-487a-b0f0-74624d911357",
        "status": "final",
        "category": [
          {
            "coding": [
              {
                "system": "http://terminology.hl7.org/CodeSystem/observation-category",
                "code": "laboratory",
                "display": "Laboratory"
              }
            ],
            "text": "Laboratory"
          }
        ],
        "code": {
          "coding": [
            {
              "system": "http://loinc.org",
              "code": "34543-9",
              "display": "Bilirubin direct & total panel"
            }
          ],
          "text": "Total Bilirubin"
        },
        "subject": {
          "reference": "Patient/f1fe8676-1a6e-48ce-ad79-860a8d7d493b"
        },
        "encounter": {
          "reference": "Encounter/7e5808a4-2c7a-4993-b4b3-558460feab41"
        },
        "effectiveDateTime": "2025-10-16",
        "interpretation": [
          {
            "coding": [
              {
                "system": "http://terminology.hl7.org/CodeSystem/v3-ObservationInterpretation",
                "code": "A",
                "display": "Abnormal"
              }
            ]
          }
        ],
        "note": [
          {
            "text": "Definition: https://loinc.org/34543-9/"
          }
        ]
      },
      "request": {
        "method": "POST",
        "url": "Observation"
      }
    },
    {
      "fullUrl": "urn:uuid:d3850ce2-e42c-45ce-a642-0557e235d339",
      "resource": {
        "resourceType": "Observation",
        "id": "d3850ce2-e42c-45ce-a642-0557e235d339",
        "status": "final",
        "category": [
          {
            "coding": [
              {
                "system": "http://terminology.hl7.org/CodeSystem/observation-category",
                "code": "laboratory",
                "display": "Laboratory"
              }
            ],
            "text": "Laboratory"
          }
        ],
        "code": {
          "coding": [
            {
              "system": "http://loinc.org",
              "code": "2064-4",
              "display": "Ceruloplasmin SerPl-mCnc"
            }
          ],
          "text": "Serum Ceruloplasmin"
        },
        "subject": {
          "reference": "Patient/f1fe8676-1a6e-48ce-ad79-860a8d7d493b"
        },
        "encounter": {
          "reference": "Encounter/7e5808a4-2c7a-4993-b4b3-558460feab41"
        },
        "effectiveDateTime": "2025-10-16",
        "valueQuantity": {
          "value": 12.0,
          "unit": "mg/dL",
          "system": "http://unitsofmeasure.org",
          "code": "mg/dL"
        },
        "interpretation": [
          {
            "coding": [
              {
                "system": "http://terminology.hl7.org/CodeSystem/v3-ObservationInterpretation",
                "code": "L",
                "display": "Low"
              }
            ]
          }
        ],
        "note": [
          {
            "text": "Definition: https://loinc.org/2064-4/"
          }
        ]
      },
      "request": {
        "method": "POST",
        "url": "Observation"
      }
    },
    {
      "fullUrl": "urn:uuid:059585d7-5b95-446b-bdf5-6fc103c37093",
      "resource": {
        "resourceType": "Observation",
        "id": "059585d7-5b95-446b-bdf5-6fc103c37093",
        "status": "final",
        "category": [
          {
            "coding": [
              {
                "system": "http://terminology.hl7.org/CodeSystem/observation-category",
                "code": "laboratory",
                "display": "Laboratory"
              }
            ],
            "text": "Laboratory"
          }
        ],
        "code": {
          "coding": [
            {
              "system": "http://loinc.org",
              "code": "unknown",
              "display": "24-hour Urinary Copper Excretion"
            }
          ],
          "text": "24-hour Urinary Copper Excretion"
        },
        "subject": {
          "reference": "Patient/f1fe8676-1a6e-48ce-ad79-860a8d7d493b"
        },
        "encounter": {
          "reference": "Encounter/7e5808a4-2c7a-4993-b4b3-558460feab41"
        },
        "effectiveDateTime": "2025-10-16",
        "valueQuantity": {
          "value": 150.0,
          "unit": "µg/24h",
          "system": "http://unitsofmeasure.org",
          "code": "µg/24h"
        },
        "interpretation": [
          {
            "coding": [
              {
                "system": "http://terminology.hl7.org/CodeSystem/v3-ObservationInterpretation",
                "code": "H",
                "display": "High"
              }
            ]
          }
        ]
      },
      "request": {
        "method": "POST",
        "url": "Observation"
      }
    },
    {
      "fullUrl": "urn:uuid:bdd9508c-20e7-499f-8351-5c0e689f3bb5",
      "resource": {
        "resourceType": "Observation",
        "id": "bdd9508c-20e7-499f-8351-5c0e689f3bb5",
        "status": "final",
        "category": [
          {
            "coding": [
              {
                "system": "http://terminology.hl7.org/CodeSystem/observation-category",
                "code": "exam",
                "display": "Exam"
              }
            ],
            "text": "Exam"
          }
        ],
        "code": {
          "coding": [
            {
              "system": "http://snomed.info/sct",
              "code": "84229001",
              "display": "Fatigue"
            }
          ],
          "text": "Fatigue"
        },
        "subject": {
          "reference": "Patient/f1fe8676-1a6e-48ce-ad79-860a8d7d493b"
        },
        "encounter": {
          "reference": "Encounter/7e5808a4-2c7a-4993-b4b3-558460feab41"
        },
        "effectivePeriod": {
          "start": "2025-10-16"
        },
        "valueBoolean": true,
        "note": [
          {
            "text": "Definition: https://snomed.info/id/84229001"
          }
        ]
      },
      "request": {
        "method": "POST",
        "url": "Observation"
      }
    },
    {
      "fullUrl": "urn:uuid:8467889c-1382-4643-90c9-d0c348d2ceb8",
      "resource": {
        "resourceType": "Observation",
        "id": "8467889c-1382-4643-90c9-d0c348d2ceb8",
        "status": "final",
        "category": [
          {
            "coding": [
              {
                "system": "http://terminology.hl7.org/CodeSystem/observation-category",
                "code": "exam",
                "display": "Exam"
              }
            ],
            "text": "Exam"
          }
        ],
        "code": {
          "coding": [
            {
              "system": "http://snomed.info/sct",
              "code": "43364001",
              "display": "Abdominal discomfort"
            }
          ],
          "text": "Abdominal Discomfort"
        },
        "subject": {
          "reference": "Patient/f1fe8676-1a6e-48ce-ad79-860a8d7d493b"
        },
        "encounter": {
          "reference": "Encounter/7e5808a4-2c7a-4993-b4b3-558460feab41"
        },
        "effectivePeriod": {
          "start": "2025-10-16"
        },
        "valueBoolean": true,
        "note": [
          {
            "text": "Definition: https://snomed.info/id/43364001"
          }
        ]
      },
      "request": {
        "method": "POST",
        "url": "Observation"
      }
    },
    {
      "fullUrl": "urn:uuid:1914111c-921c-4e00-9555-7ce9a3b55d9c",
      "resource": {
        "resourceType": "Observation",
        "id": "1914111c-921c-4e00-9555-7ce9a3b55d9c",
        "status": "final",
        "category": [
          {
            "coding": [
              {
                "system": "http://terminology.hl7.org/CodeSystem/observation-category",
                "code": "exam",
                "display": "Exam"
              }
            ],
            "text": "Exam"
          }
        ],
        "code": {
          "coding": [
            {
              "system": "http://snomed.info/sct",
              "code": "246975001",
              "display": "Scleral icterus"
            }
          ],
          "text": "Scleral Icterus"
        },
        "subject": {
          "reference": "Patient/f1fe8676-1a6e-48ce-ad79-860a8d7d493b"
        },
        "encounter": {
          "reference": "Encounter/7e5808a4-2c7a-4993-b4b3-558460feab41"
        },
        "effectivePeriod": {
          "start": "2025-10-16"
        },
        "valueBoolean": true,
        "note": [
          {
            "text": "Definition: https://snomed.info/id/246975001"
          }
        ]
      },
      "request": {
        "method": "POST",
        "url": "Observation"
      }
    }
  ]
}