{
  "resourceType": "Bundle",
  "type": "transaction",
  "entry": [
    {
      "fullUrl": "urn:uuid:9e6e27e7-29e4-4b14-bcbb-5346f9cb4d0f",
      "resource": {
        "resourceType": "Patient",
        "id": "9e6e27e7-29e4-4b14-bcbb-5346f9cb4d0f",
        "name": [
          {
            "family": "Dmitrieva",
            "given": [
              "Katerina"
            ]
          }
        ],
        "gender": "female",
        "birthDate": "1996-01-01",
        "address": [
          {}
        ]
      },
      "request": {
        "method": "POST",
        "url": "Patient"
      }
    },
    {
      "fullUrl": "urn:uuid:c6bf4c45-0ef3-49f1-9a66-69d8daf41ee4",
      "resource": {
        "resourceType": "Encounter",
        "id": "c6bf4c45-0ef3-49f1-9a66-69d8daf41ee4",
        "identifier": [
          {
            "use": "temp",
            "value": "Encounter_Katerina Dmitrieva_20251022152102"
          }
        ],
        "status": "completed",
        "priority": {
          "coding": [
            {
              "system": "http://snomed.info/sct",
              "code": "17621005",
              "display": "Normal"
            }
          ]
        },
        "type": [
          {
            "coding": [
              {
                "system": "http://snomed.info/sct",
                "code": "11429006",
                "display": "Consultation"
              }
            ]
          }
        ],
        "subject": {
          "reference": "Patient/9e6e27e7-29e4-4b14-bcbb-5346f9cb4d0f",
          "display": "Katerina Dmitrieva"
        },
        "reason": [
          {
            "value": [
              {
                "concept": {
                  "text": "complaints of chronic, subtle tremors in her hands and mild difficulty with coordination"
                }
              }
            ]
          }
        ]
      },
      "request": {
        "method": "POST",
        "url": "Encounter"
      }
    },
    {
      "fullUrl": "urn:uuid:c3fb6dca-b4b4-401b-bd0c-e90d652b62c2",
      "resource": {
        "resourceType": "Observation",
        "id": "c3fb6dca-b4b4-401b-bd0c-e90d652b62c2",
        "status": "final",
        "category": [
          {
            "coding": [
              {
                "system": "http://terminology.hl7.org/CodeSystem/observation-category",
                "code": "laboratory",
                "display": "Laboratory"
              }
            ],
            "text": "Laboratory"
          }
        ],
        "code": {
          "coding": [
            {
              "system": "http://loinc.org",
              "code": "2064-4",
              "display": "Ceruloplasmin SerPl-mCnc"
            }
          ],
          "text": "Serum Ceruloplasmin"
        },
        "subject": {
          "reference": "Patient/9e6e27e7-29e4-4b14-bcbb-5346f9cb4d0f"
        },
        "encounter": {
          "reference": "Encounter/c6bf4c45-0ef3-49f1-9a66-69d8daf41ee4"
        },
        "effectiveDateTime": "2025-10-16",
        "valueQuantity": {
          "value": 7.0,
          "unit": "mg/dL",
          "system": "http://unitsofmeasure.org",
          "code": "mg/dL"
        },
        "interpretation": [
          {
            "coding": [
              {
                "system": "http://terminology.hl7.org/CodeSystem/v3-ObservationInterpretation",
                "code": "L",
                "display": "Low"
              }
            ]
          }
        ],
        "note": [
          {
            "text": "Definition: https://loinc.org/2064-4/"
          }
        ]
      },
      "request": {
        "method": "POST",
        "url": "Observation"
      }
    },
    {
      "fullUrl": "urn:uuid:35fd824d-2aee-489e-ba68-d3fa1c4c7ee7",
      "resource": {
        "resourceType": "Observation",
        "id": "35fd824d-2aee-489e-ba68-d3fa1c4c7ee7",
        "status": "final",
        "category": [
          {
            "coding": [
              {
                "system": "http://terminology.hl7.org/CodeSystem/observation-category",
                "code": "laboratory",
                "display": "Laboratory"
              }
            ],
            "text": "Laboratory"
          }
        ],
        "code": {
          "coding": [
            {
              "system": "http://loinc.org",
              "code": "unknown",
              "display": "24-hour Urinary Copper Excretion"
            }
          ],
          "text": "24-hour Urinary Copper Excretion"
        },
        "subject": {
          "reference": "Patient/9e6e27e7-29e4-4b14-bcbb-5346f9cb4d0f"
        },
        "encounter": {
          "reference": "Encounter/c6bf4c45-0ef3-49f1-9a66-69d8daf41ee4"
        },
        "effectiveDateTime": "2025-10-16",
        "valueQuantity": {
          "value": 400.0,
          "unit": "µg/24h",
          "system": "http://unitsofmeasure.org",
          "code": "µg/24h"
        },
        "interpretation": [
          {
            "coding": [
              {
                "system": "http://terminology.hl7.org/CodeSystem/v3-ObservationInterpretation",
                "code": "H",
                "display": "High"
              }
            ]
          }
        ]
      },
      "request": {
        "method": "POST",
        "url": "Observation"
      }
    },
    {
      "fullUrl": "urn:uuid:1f337979-9b0d-4bb5-9a5d-d27b2498b459",
      "resource": {
        "resourceType": "Observation",
        "id": "1f337979-9b0d-4bb5-9a5d-d27b2498b459",
        "status": "final",
        "category": [
          {
            "coding": [
              {
                "system": "http://terminology.hl7.org/CodeSystem/observation-category",
                "code": "laboratory",
                "display": "Laboratory"
              }
            ],
            "text": "Laboratory"
          }
        ],
        "code": {
          "coding": [
            {
              "system": "http://loinc.org",
              "code": "109066-1",
              "display": "Bilirub Indirect Msmt SerPl"
            }
          ],
          "text": "Serum Bilirubin"
        },
        "subject": {
          "reference": "Patient/9e6e27e7-29e4-4b14-bcbb-5346f9cb4d0f"
        },
        "encounter": {
          "reference": "Encounter/c6bf4c45-0ef3-49f1-9a66-69d8daf41ee4"
        },
        "effectiveDateTime": "2025-10-16",
        "interpretation": [
          {
            "coding": [
              {
                "system": "http://terminology.hl7.org/CodeSystem/v3-ObservationInterpretation",
                "code": "N",
                "display": "Normal"
              }
            ]
          }
        ],
        "note": [
          {
            "text": "Definition: https://loinc.org/109066-1/"
          }
        ]
      },
      "request": {
        "method": "POST",
        "url": "Observation"
      }
    },
    {
      "fullUrl": "urn:uuid:d5a0f2df-b22c-4495-ba0e-c0f485bc5fdf",
      "resource": {
        "resourceType": "Observation",
        "id": "d5a0f2df-b22c-4495-ba0e-c0f485bc5fdf",
        "status": "final",
        "category": [
          {
            "coding": [
              {
                "system": "http://terminology.hl7.org/CodeSystem/observation-category",
                "code": "exam",
                "display": "Exam"
              }
            ],
            "text": "Exam"
          }
        ],
        "code": {
          "coding": [
            {
              "system": "http://snomed.info/sct",
              "code": "49958005",
              "display": "Aspergillus clavatus tremors"
            }
          ],
          "text": "Tremors"
        },
        "subject": {
          "reference": "Patient/9e6e27e7-29e4-4b14-bcbb-5346f9cb4d0f"
        },
        "encounter": {
          "reference": "Encounter/c6bf4c45-0ef3-49f1-9a66-69d8daf41ee4"
        },
        "effectivePeriod": {
          "start": "2025-10-16"
        },
        "valueBoolean": true,
        "note": [
          {
            "text": "Definition: https://snomed.info/id/49958005"
          }
        ]
      },
      "request": {
        "method": "POST",
        "url": "Observation"
      }
    },
    {
      "fullUrl": "urn:uuid:56594f8e-04c4-41f7-8d27-57b349db5032",
      "resource": {
        "resourceType": "Observation",
        "id": "56594f8e-04c4-41f7-8d27-57b349db5032",
        "status": "final",
        "category": [
          {
            "coding": [
              {
                "system": "http://terminology.hl7.org/CodeSystem/observation-category",
                "code": "exam",
                "display": "Exam"
              }
            ],
            "text": "Exam"
          }
        ],
        "code": {
          "coding": [
            {
              "system": "http://snomed.info/sct",
              "code": "84229001",
              "display": "Fatigue"
            }
          ],
          "text": "Fatigue"
        },
        "subject": {
          "reference": "Patient/9e6e27e7-29e4-4b14-bcbb-5346f9cb4d0f"
        },
        "encounter": {
          "reference": "Encounter/c6bf4c45-0ef3-49f1-9a66-69d8daf41ee4"
        },
        "effectivePeriod": {
          "start": "2025-10-16"
        },
        "valueBoolean": true,
        "note": [
          {
            "text": "Definition: https://snomed.info/id/84229001"
          }
        ]
      },
      "request": {
        "method": "POST",
        "url": "Observation"
      }
    },
    {
      "fullUrl": "urn:uuid:376e4dcb-4471-488b-8363-abcb2c5a21fd",
      "resource": {
        "resourceType": "Observation",
        "id": "376e4dcb-4471-488b-8363-abcb2c5a21fd",
        "status": "final",
        "category": [
          {
            "coding": [
              {
                "system": "http://terminology.hl7.org/CodeSystem/observation-category",
                "code": "exam",
                "display": "Exam"
              }
            ],
            "text": "Exam"
          }
        ],
        "code": {
          "coding": [
            {
              "system": "http://snomed.info/sct",
              "code": "271697007",
              "display": "Muscle irritability"
            }
          ],
          "text": "Irritability"
        },
        "subject": {
          "reference": "Patient/9e6e27e7-29e4-4b14-bcbb-5346f9cb4d0f"
        },
        "encounter": {
          "reference": "Encounter/c6bf4c45-0ef3-49f1-9a66-69d8daf41ee4"
        },
        "effectivePeriod": {
          "start": "2025-10-16"
        },
        "valueBoolean": true,
        "note": [
          {
            "text": "Definition: https://snomed.info/id/271697007"
          }
        ]
      },
      "request": {
        "method": "POST",
        "url": "Observation"
      }
    },
    {
      "fullUrl": "urn:uuid:cce4963e-4cf5-4f94-a96f-ebb84edec20d",
      "resource": {
        "resourceType": "Observation",
        "id": "cce4963e-4cf5-4f94-a96f-ebb84edec20d",
        "status": "final",
        "category": [
          {
            "coding": [
              {
                "system": "http://terminology.hl7.org/CodeSystem/observation-category",
                "code": "exam",
                "display": "Exam"
              }
            ],
            "text": "Exam"
          }
        ],
        "code": {
          "coding": [
            {
              "system": "http://snomed.info/sct",
              "code": "8011004",
              "display": "Dysarthria"
            }
          ],
          "text": "Dysarthria"
        },
        "subject": {
          "reference": "Patient/9e6e27e7-29e4-4b14-bcbb-5346f9cb4d0f"
        },
        "encounter": {
          "reference": "Encounter/c6bf4c45-0ef3-49f1-9a66-69d8daf41ee4"
        },
        "effectivePeriod": {
          "start": "2025-10-16"
        },
        "valueBoolean": true,
        "note": [
          {
            "text": "Definition: https://snomed.info/id/8011004"
          }
        ]
      },
      "request": {
        "method": "POST",
        "url": "Observation"
      }
    },
    {
      "fullUrl": "urn:uuid:f59b21fa-c7cf-458b-b230-ee9089ab2a1d",
      "resource": {
        "resourceType": "Observation",
        "id": "f59b21fa-c7cf-458b-b230-ee9089ab2a1d",
        "status": "final",
        "category": [
          {
            "coding": [
              {
                "system": "http://terminology.hl7.org/CodeSystem/observation-category",
                "code": "exam",
                "display": "Exam"
              }
            ],
            "text": "Exam"
          }
        ],
        "code": {
          "coding": [
            {
              "system": "http://snomed.info/sct",
              "code": "30155000",
              "display": "Decerebrate rigidity"
            }
          ],
          "text": "Rigidity"
        },
        "subject": {
          "reference": "Patient/9e6e27e7-29e4-4b14-bcbb-5346f9cb4d0f"
        },
        "encounter": {
          "reference": "Encounter/c6bf4c45-0ef3-49f1-9a66-69d8daf41ee4"
        },
        "effectivePeriod": {
          "start": "2025-10-16"
        },
        "valueBoolean": true,
        "note": [
          {
            "text": "Definition: https://snomed.info/id/30155000"
          }
        ]
      },
      "request": {
        "method": "POST",
        "url": "Observation"
      }
    },
    {
      "fullUrl": "urn:uuid:29f1d682-203f-4179-b6ad-4ec123e49914",
      "resource": {
        "resourceType": "List",
        "id": "29f1d682-203f-4179-b6ad-4ec123e49914",
        "contained": [
          {
            "resourceType": "FamilyMemberHistory",
            "id": "fmh-1",
            "status": "completed",
            "patient": {
              "reference": "Patient/9e6e27e7-29e4-4b14-bcbb-5346f9cb4d0f"
            },
            "relationship": {
              "coding": [
                {
                  "system": "http://snomed.info/sct",
                  "code": "72705000",
                  "display": "Mother"
                }
              ]
            },
            "deceasedBoolean": false,
            "condition": [
              {
                "code": {
                  "coding": [
                    {
                      "system": "http://snomed.info/sct",
                      "code": "192498004",
                      "display": "Enduring personality change after psychiatric illness"
                    }
                  ]
                }
              }
            ]
          }
        ],
        "status": "current",
        "mode": "snapshot",
        "code": {
          "coding": [
            {
              "system": "http://loinc.org",
              "code": "8670-2",
              "display": "History of family member diseases"
            }
          ]
        },
        "subject": [
          {
            "reference": "Patient/9e6e27e7-29e4-4b14-bcbb-5346f9cb4d0f"
          }
        ],
        "entry": [
          {
            "item": {
              "reference": "#fmh-1"
            }
          }
        ]
      },
      "request": {
        "method": "POST",
        "url": "FamilyMemberHistory"
      }
    }
  ]
}