{
  "resourceType": "Bundle",
  "type": "transaction",
  "entry": [
    {
      "fullUrl": "urn:uuid:bd49001a-3394-4f2f-a69f-30519026bf8e",
      "resource": {
        "resourceType": "Patient",
        "id": "bd49001a-3394-4f2f-a69f-30519026bf8e",
        "name": [
          {
            "family": "Ivanov",
            "given": [
              "Andrei"
            ]
          }
        ],
        "gender": "male",
        "address": [
          {}
        ]
      },
      "request": {
        "method": "POST",
        "url": "Patient"
      }
    },
    {
      "fullUrl": "urn:uuid:cd57c242-7925-45e9-a7b7-c38a62a7f300",
      "resource": {
        "resourceType": "Encounter",
        "id": "cd57c242-7925-45e9-a7b7-c38a62a7f300",
        "identifier": [
          {
            "use": "temp",
            "value": "Encounter_Andrei Ivanov_20251017182515"
          }
        ],
        "status": "completed",
        "priority": {
          "coding": [
            {
              "system": "http://snomed.info/sct",
              "code": "17621005",
              "display": "Normal"
            }
          ]
        },
        "type": [
          {
            "coding": [
              {
                "system": "http://snomed.info/sct",
                "code": "11429006",
                "display": "Consultation"
              }
            ]
          }
        ],
        "subject": {
          "reference": "Patient/bd49001a-3394-4f2f-a69f-30519026bf8e",
          "display": "Andrei Ivanov"
        },
        "reason": [
          {
            "value": [
              {
                "concept": {
                  "text": "persistent fatigue and occasional mild abdominal discomfort"
                }
              }
            ]
          }
        ]
      },
      "request": {
        "method": "POST",
        "url": "Encounter"
      }
    },
    {
      "fullUrl": "urn:uuid:ee73e2f1-0901-40b8-8fbb-dbba418d6425",
      "resource": {
        "resourceType": "Observation",
        "id": "ee73e2f1-0901-40b8-8fbb-dbba418d6425",
        "status": "final",
        "category": [
          {
            "coding": [
              {
                "system": "http://terminology.hl7.org/CodeSystem/observation-category",
                "code": "laboratory",
                "display": "Laboratory"
              }
            ],
            "text": "Laboratory"
          }
        ],
        "code": {
          "coding": [
            {
              "system": "http://loinc.org",
              "code": "93005-7",
              "display": "Rapid alt hand move - L+R mean Score"
            }
          ],
          "text": "ALT"
        },
        "subject": {
          "reference": "Patient/bd49001a-3394-4f2f-a69f-30519026bf8e"
        },
        "encounter": {
          "reference": "Encounter/cd57c242-7925-45e9-a7b7-c38a62a7f300"
        },
        "effectiveDateTime": "2025-10-16",
        "interpretation": [
          {
            "coding": [
              {
                "system": "http://terminology.hl7.org/CodeSystem/v3-ObservationInterpretation",
                "code": "H",
                "display": "High"
              }
            ]
          }
        ],
        "note": [
          {
            "text": "Definition: https://loinc.org/93005-7/"
          }
        ]
      },
      "request": {
        "method": "POST",
        "url": "Observation"
      }
    },
    {
      "fullUrl": "urn:uuid:3ab58b10-52db-4b01-87c0-9412d0a5f471",
      "resource": {
        "resourceType": "Observation",
        "id": "3ab58b10-52db-4b01-87c0-9412d0a5f471",
        "status": "final",
        "category": [
          {
            "coding": [
              {
                "system": "http://terminology.hl7.org/CodeSystem/observation-category",
                "code": "laboratory",
                "display": "Laboratory"
              }
            ],
            "text": "Laboratory"
          }
        ],
        "code": {
          "coding": [
            {
              "system": "http://loinc.org",
              "code": "1917-4",
              "display": "AST Amn-cCnc"
            }
          ],
          "text": "AST"
        },
        "subject": {
          "reference": "Patient/bd49001a-3394-4f2f-a69f-30519026bf8e"
        },
        "encounter": {
          "reference": "Encounter/cd57c242-7925-45e9-a7b7-c38a62a7f300"
        },
        "effectiveDateTime": "2025-10-16",
        "interpretation": [
          {
            "coding": [
              {
                "system": "http://terminology.hl7.org/CodeSystem/v3-ObservationInterpretation",
                "code": "H",
                "display": "High"
              }
            ]
          }
        ],
        "note": [
          {
            "text": "Definition: https://loinc.org/1917-4/"
          }
        ]
      },
      "request": {
        "method": "POST",
        "url": "Observation"
      }
    },
    {
      "fullUrl": "urn:uuid:cf82531d-58eb-42a7-a093-a26dab5f3e66",
      "resource": {
        "resourceType": "Observation",
        "id": "cf82531d-58eb-42a7-a093-a26dab5f3e66",
        "status": "final",
        "category": [
          {
            "coding": [
              {
                "system": "http://terminology.hl7.org/CodeSystem/observation-category",
                "code": "laboratory",
                "display": "Laboratory"
              }
            ],
            "text": "Laboratory"
          }
        ],
        "code": {
          "coding": [
            {
              "system": "http://loinc.org",
              "code": "34543-9",
              "display": "Bilirubin direct & total panel"
            }
          ],
          "text": "Total Bilirubin"
        },
        "subject": {
          "reference": "Patient/bd49001a-3394-4f2f-a69f-30519026bf8e"
        },
        "encounter": {
          "reference": "Encounter/cd57c242-7925-45e9-a7b7-c38a62a7f300"
        },
        "effectiveDateTime": "2025-10-16",
        "interpretation": [
          {
            "coding": [
              {
                "system": "http://terminology.hl7.org/CodeSystem/v3-ObservationInterpretation",
                "code": "A",
                "display": "Abnormal"
              }
            ]
          }
        ],
        "note": [
          {
            "text": "Definition: https://loinc.org/34543-9/"
          }
        ]
      },
      "request": {
        "method": "POST",
        "url": "Observation"
      }
    },
    {
      "fullUrl": "urn:uuid:ed87f007-358c-4d1d-b4ed-1466ca9d839f",
      "resource": {
        "resourceType": "Observation",
        "id": "ed87f007-358c-4d1d-b4ed-1466ca9d839f",
        "status": "final",
        "category": [
          {
            "coding": [
              {
                "system": "http://terminology.hl7.org/CodeSystem/observation-category",
                "code": "laboratory",
                "display": "Laboratory"
              }
            ],
            "text": "Laboratory"
          }
        ],
        "code": {
          "coding": [
            {
              "system": "http://loinc.org",
              "code": "2064-4",
              "display": "Ceruloplasmin SerPl-mCnc"
            }
          ],
          "text": "Serum Ceruloplasmin"
        },
        "subject": {
          "reference": "Patient/bd49001a-3394-4f2f-a69f-30519026bf8e"
        },
        "encounter": {
          "reference": "Encounter/cd57c242-7925-45e9-a7b7-c38a62a7f300"
        },
        "effectiveDateTime": "2025-10-16",
        "valueQuantity": {
          "value": 12.0,
          "unit": "mg/dL",
          "system": "http://unitsofmeasure.org",
          "code": "mg/dL"
        },
        "interpretation": [
          {
            "coding": [
              {
                "system": "http://terminology.hl7.org/CodeSystem/v3-ObservationInterpretation",
                "code": "L",
                "display": "Low"
              }
            ]
          }
        ],
        "note": [
          {
            "text": "Definition: https://loinc.org/2064-4/"
          }
        ]
      },
      "request": {
        "method": "POST",
        "url": "Observation"
      }
    },
    {
      "fullUrl": "urn:uuid:9c365cbe-d319-44df-a33b-ad0712609c3b",
      "resource": {
        "resourceType": "Observation",
        "id": "9c365cbe-d319-44df-a33b-ad0712609c3b",
        "status": "final",
        "category": [
          {
            "coding": [
              {
                "system": "http://terminology.hl7.org/CodeSystem/observation-category",
                "code": "laboratory",
                "display": "Laboratory"
              }
            ],
            "text": "Laboratory"
          }
        ],
        "code": {
          "coding": [
            {
              "system": "http://loinc.org",
              "code": "unknown",
              "display": "24-hour Urinary Copper Excretion"
            }
          ],
          "text": "24-hour Urinary Copper Excretion"
        },
        "subject": {
          "reference": "Patient/bd49001a-3394-4f2f-a69f-30519026bf8e"
        },
        "encounter": {
          "reference": "Encounter/cd57c242-7925-45e9-a7b7-c38a62a7f300"
        },
        "effectiveDateTime": "2025-10-16",
        "valueQuantity": {
          "value": 150.0,
          "unit": "µg/24h",
          "system": "http://unitsofmeasure.org",
          "code": "µg/24h"
        },
        "interpretation": [
          {
            "coding": [
              {
                "system": "http://terminology.hl7.org/CodeSystem/v3-ObservationInterpretation",
                "code": "H",
                "display": "High"
              }
            ]
          }
        ]
      },
      "request": {
        "method": "POST",
        "url": "Observation"
      }
    },
    {
      "fullUrl": "urn:uuid:5820b5ff-3675-4ced-8910-254a912d2b97",
      "resource": {
        "resourceType": "Observation",
        "id": "5820b5ff-3675-4ced-8910-254a912d2b97",
        "status": "final",
        "category": [
          {
            "coding": [
              {
                "system": "http://terminology.hl7.org/CodeSystem/observation-category",
                "code": "exam",
                "display": "Exam"
              }
            ],
            "text": "Exam"
          }
        ],
        "code": {
          "coding": [
            {
              "system": "http://snomed.info/sct",
              "code": "84229001",
              "display": "Fatigue"
            }
          ],
          "text": "Fatigue"
        },
        "subject": {
          "reference": "Patient/bd49001a-3394-4f2f-a69f-30519026bf8e"
        },
        "encounter": {
          "reference": "Encounter/cd57c242-7925-45e9-a7b7-c38a62a7f300"
        },
        "effectivePeriod": {
          "start": "2025-10-16"
        },
        "valueBoolean": true,
        "note": [
          {
            "text": "Definition: https://snomed.info/id/84229001"
          }
        ]
      },
      "request": {
        "method": "POST",
        "url": "Observation"
      }
    },
    {
      "fullUrl": "urn:uuid:fea593ee-2d41-4465-a083-14c18eb0e6e3",
      "resource": {
        "resourceType": "Observation",
        "id": "fea593ee-2d41-4465-a083-14c18eb0e6e3",
        "status": "final",
        "category": [
          {
            "coding": [
              {
                "system": "http://terminology.hl7.org/CodeSystem/observation-category",
                "code": "exam",
                "display": "Exam"
              }
            ],
            "text": "Exam"
          }
        ],
        "code": {
          "coding": [
            {
              "system": "http://snomed.info/sct",
              "code": "43364001",
              "display": "Abdominal discomfort"
            }
          ],
          "text": "Abdominal Discomfort"
        },
        "subject": {
          "reference": "Patient/bd49001a-3394-4f2f-a69f-30519026bf8e"
        },
        "encounter": {
          "reference": "Encounter/cd57c242-7925-45e9-a7b7-c38a62a7f300"
        },
        "effectivePeriod": {
          "start": "2025-10-16"
        },
        "valueBoolean": true,
        "note": [
          {
            "text": "Definition: https://snomed.info/id/43364001"
          }
        ]
      },
      "request": {
        "method": "POST",
        "url": "Observation"
      }
    },
    {
      "fullUrl": "urn:uuid:078274b4-2238-4449-9507-de92b8dc60a4",
      "resource": {
        "resourceType": "Observation",
        "id": "078274b4-2238-4449-9507-de92b8dc60a4",
        "status": "final",
        "category": [
          {
            "coding": [
              {
                "system": "http://terminology.hl7.org/CodeSystem/observation-category",
                "code": "exam",
                "display": "Exam"
              }
            ],
            "text": "Exam"
          }
        ],
        "code": {
          "coding": [
            {
              "system": "http://snomed.info/sct",
              "code": "246975001",
              "display": "Scleral icterus"
            }
          ],
          "text": "Scleral Icterus"
        },
        "subject": {
          "reference": "Patient/bd49001a-3394-4f2f-a69f-30519026bf8e"
        },
        "encounter": {
          "reference": "Encounter/cd57c242-7925-45e9-a7b7-c38a62a7f300"
        },
        "effectivePeriod": {
          "start": "2025-10-16"
        },
        "valueBoolean": true,
        "note": [
          {
            "text": "Definition: https://snomed.info/id/246975001"
          }
        ]
      },
      "request": {
        "method": "POST",
        "url": "Observation"
      }
    }
  ]
}