{
  "resourceType": "Bundle",
  "type": "transaction",
  "entry": [
    {
      "fullUrl": "urn:uuid:3df9cebe-07e7-427a-9fe9-cfd00d49222a",
      "resource": {
        "resourceType": "Patient",
        "id": "3df9cebe-07e7-427a-9fe9-cfd00d49222a",
        "name": [
          {
            "family": "Petrova",
            "given": [
              "Alexandra"
            ]
          }
        ],
        "gender": "female",
        "birthDate": "2000-01-01",
        "address": [
          {}
        ]
      },
      "request": {
        "method": "POST",
        "url": "Patient"
      }
    },
    {
      "fullUrl": "urn:uuid:7e62f550-6bc4-4020-885a-40263aa6130e",
      "resource": {
        "resourceType": "Encounter",
        "id": "7e62f550-6bc4-4020-885a-40263aa6130e",
        "identifier": [
          {
            "use": "temp",
            "value": "Encounter_Alexandra Petrova_20251021093145"
          }
        ],
        "status": "completed",
        "priority": {
          "coding": [
            {
              "system": "http://snomed.info/sct",
              "code": "17621005",
              "display": "Normal"
            }
          ]
        },
        "type": [
          {
            "coding": [
              {
                "system": "http://snomed.info/sct",
                "code": "11429006",
                "display": "Consultation"
              }
            ]
          }
        ],
        "subject": {
          "reference": "Patient/3df9cebe-07e7-427a-9fe9-cfd00d49222a",
          "display": "Alexandra Petrova"
        },
        "reason": [
          {
            "value": [
              {
                "concept": {
                  "text": "complaints of mild tremors in her hands"
                }
              }
            ]
          }
        ]
      },
      "request": {
        "method": "POST",
        "url": "Encounter"
      }
    },
    {
      "fullUrl": "urn:uuid:48590996-c5c6-40b7-b9cb-d3c7fd934ce9",
      "resource": {
        "resourceType": "Observation",
        "id": "48590996-c5c6-40b7-b9cb-d3c7fd934ce9",
        "status": "final",
        "category": [
          {
            "coding": [
              {
                "system": "http://terminology.hl7.org/CodeSystem/observation-category",
                "code": "laboratory",
                "display": "Laboratory"
              }
            ],
            "text": "Laboratory"
          }
        ],
        "code": {
          "coding": [
            {
              "system": "http://loinc.org",
              "code": "2064-4",
              "display": "Ceruloplasmin SerPl-mCnc"
            }
          ],
          "text": "Serum Ceruloplasmin"
        },
        "subject": {
          "reference": "Patient/3df9cebe-07e7-427a-9fe9-cfd00d49222a"
        },
        "encounter": {
          "reference": "Encounter/7e62f550-6bc4-4020-885a-40263aa6130e"
        },
        "effectiveDateTime": "2025-10-16",
        "valueQuantity": {
          "value": 15.0,
          "unit": "mg/dL",
          "system": "http://unitsofmeasure.org",
          "code": "mg/dL"
        },
        "interpretation": [
          {
            "coding": [
              {
                "system": "http://terminology.hl7.org/CodeSystem/v3-ObservationInterpretation",
                "code": "L",
                "display": "Low"
              }
            ]
          }
        ],
        "note": [
          {
            "text": "Definition: https://loinc.org/2064-4/"
          }
        ]
      },
      "request": {
        "method": "POST",
        "url": "Observation"
      }
    },
    {
      "fullUrl": "urn:uuid:779eae2c-0866-47c8-9b9f-ee0069300850",
      "resource": {
        "resourceType": "Observation",
        "id": "779eae2c-0866-47c8-9b9f-ee0069300850",
        "status": "final",
        "category": [
          {
            "coding": [
              {
                "system": "http://terminology.hl7.org/CodeSystem/observation-category",
                "code": "laboratory",
                "display": "Laboratory"
              }
            ],
            "text": "Laboratory"
          }
        ],
        "code": {
          "coding": [
            {
              "system": "http://loinc.org",
              "code": "unknown",
              "display": "24-hour Urine Copper Collection"
            }
          ],
          "text": "24-hour Urine Copper Collection"
        },
        "subject": {
          "reference": "Patient/3df9cebe-07e7-427a-9fe9-cfd00d49222a"
        },
        "encounter": {
          "reference": "Encounter/7e62f550-6bc4-4020-885a-40263aa6130e"
        },
        "effectiveDateTime": "2025-10-16",
        "valueQuantity": {
          "value": 50.0,
          "unit": "mcg",
          "system": "http://unitsofmeasure.org",
          "code": "mcg"
        },
        "interpretation": [
          {
            "coding": [
              {
                "system": "http://terminology.hl7.org/CodeSystem/v3-ObservationInterpretation",
                "code": "H",
                "display": "High"
              }
            ]
          }
        ]
      },
      "request": {
        "method": "POST",
        "url": "Observation"
      }
    },
    {
      "fullUrl": "urn:uuid:3e4c6c72-bd8b-49b4-b74e-b215ea804555",
      "resource": {
        "resourceType": "Observation",
        "id": "3e4c6c72-bd8b-49b4-b74e-b215ea804555",
        "status": "final",
        "category": [
          {
            "coding": [
              {
                "system": "http://terminology.hl7.org/CodeSystem/observation-category",
                "code": "exam",
                "display": "Exam"
              }
            ],
            "text": "Exam"
          }
        ],
        "code": {
          "coding": [
            {
              "system": "http://snomed.info/sct",
              "code": "49958005",
              "display": "Aspergillus clavatus tremors"
            }
          ],
          "text": "Mild Tremors"
        },
        "subject": {
          "reference": "Patient/3df9cebe-07e7-427a-9fe9-cfd00d49222a"
        },
        "encounter": {
          "reference": "Encounter/7e62f550-6bc4-4020-885a-40263aa6130e"
        },
        "effectivePeriod": {
          "start": "2025-10-16"
        },
        "valueBoolean": true,
        "note": [
          {
            "text": "Definition: https://snomed.info/id/49958005"
          }
        ]
      },
      "request": {
        "method": "POST",
        "url": "Observation"
      }
    },
    {
      "fullUrl": "urn:uuid:e58d184b-ae90-4df3-9f70-c8a4b953b21b",
      "resource": {
        "resourceType": "Observation",
        "id": "e58d184b-ae90-4df3-9f70-c8a4b953b21b",
        "status": "final",
        "category": [
          {
            "coding": [
              {
                "system": "http://terminology.hl7.org/CodeSystem/observation-category",
                "code": "vital-signs",
                "display": "Vital Signs"
              }
            ],
            "text": "Vital Signs"
          }
        ],
        "code": {
          "coding": [
            {
              "system": "http://loinc.org",
              "code": "18684-1",
              "display": "Blood pressure"
            }
          ],
          "text": "Blood Pressure"
        },
        "subject": {
          "reference": "Patient/3df9cebe-07e7-427a-9fe9-cfd00d49222a"
        },
        "encounter": {
          "reference": "Encounter/7e62f550-6bc4-4020-885a-40263aa6130e"
        },
        "effectiveDateTime": "2025-10-16",
        "valueQuantity": {
          "value": 120.0,
          "unit": "mmHg",
          "system": "http://unitsofmeasure.org",
          "code": "mmHg"
        },
        "interpretation": [
          {
            "coding": [
              {
                "system": "http://terminology.hl7.org/CodeSystem/v3-ObservationInterpretation",
                "code": "N",
                "display": "Normal"
              }
            ],
            "text": "Normal"
          }
        ]
      },
      "request": {
        "method": "POST",
        "url": "Observation"
      }
    },
    {
      "fullUrl": "urn:uuid:f1de1482-7721-4d01-9491-12e780dc01c1",
      "resource": {
        "resourceType": "Observation",
        "id": "f1de1482-7721-4d01-9491-12e780dc01c1",
        "status": "final",
        "category": [
          {
            "coding": [
              {
                "system": "http://terminology.hl7.org/CodeSystem/observation-category",
                "code": "vital-signs",
                "display": "Vital Signs"
              }
            ],
            "text": "Vital Signs"
          }
        ],
        "code": {
          "coding": [
            {
              "system": "http://loinc.org",
              "code": "62733-1",
              "display": "PhenX - respiratory - pulse oximetry - rest protocol 091101"
            }
          ],
          "text": "Pulse"
        },
        "subject": {
          "reference": "Patient/3df9cebe-07e7-427a-9fe9-cfd00d49222a"
        },
        "encounter": {
          "reference": "Encounter/7e62f550-6bc4-4020-885a-40263aa6130e"
        },
        "effectiveDateTime": "2025-10-16",
        "valueQuantity": {
          "value": 72.0,
          "unit": "bpm",
          "system": "http://unitsofmeasure.org",
          "code": "bpm"
        },
        "interpretation": [
          {
            "coding": [
              {
                "system": "http://terminology.hl7.org/CodeSystem/v3-ObservationInterpretation",
                "code": "N",
                "display": "Normal"
              }
            ],
            "text": "Normal"
          }
        ]
      },
      "request": {
        "method": "POST",
        "url": "Observation"
      }
    },
    {
      "fullUrl": "urn:uuid:888cb1ff-769a-4f6b-89bb-127ad16a7761",
      "resource": {
        "resourceType": "Observation",
        "id": "888cb1ff-769a-4f6b-89bb-127ad16a7761",
        "status": "final",
        "category": [
          {
            "coding": [
              {
                "system": "http://terminology.hl7.org/CodeSystem/observation-category",
                "code": "vital-signs",
                "display": "Vital Signs"
              }
            ],
            "text": "Vital Signs"
          }
        ],
        "code": {
          "coding": [
            {
              "system": "http://loinc.org",
              "code": "107102-6",
              "display": "BMI formula"
            }
          ],
          "text": "BMI"
        },
        "subject": {
          "reference": "Patient/3df9cebe-07e7-427a-9fe9-cfd00d49222a"
        },
        "encounter": {
          "reference": "Encounter/7e62f550-6bc4-4020-885a-40263aa6130e"
        },
        "effectiveDateTime": "2025-10-16",
        "valueQuantity": {
          "value": 22.1,
          "unit": "kg/m²",
          "system": "http://unitsofmeasure.org",
          "code": "kg/m²"
        },
        "interpretation": [
          {
            "coding": [
              {
                "system": "http://terminology.hl7.org/CodeSystem/v3-ObservationInterpretation",
                "code": "N",
                "display": "Normal"
              }
            ],
            "text": "Normal"
          }
        ]
      },
      "request": {
        "method": "POST",
        "url": "Observation"
      }
    },
    {
      "fullUrl": "urn:uuid:850c7a9b-fca2-4029-b852-94ef9dcdd2c6",
      "resource": {
        "resourceType": "MedicationStatement",
        "id": "850c7a9b-fca2-4029-b852-94ef9dcdd2c6",
        "status": "recorded",
        "medication": {
          "concept": {
            "coding": [
              {
                "system": "http://snomed.info/sct",
                "code": "412250002",
                "display": "Multivitamin agent"
              }
            ],
            "text": "Multivitamin"
          }
        },
        "subject": {
          "reference": "Patient/3df9cebe-07e7-427a-9fe9-cfd00d49222a"
        },
        "encounter": {
          "reference": "Encounter/7e62f550-6bc4-4020-885a-40263aa6130e"
        },
        "effectiveDateTime": "2025-10-16",
        "informationSource": [
          {
            "reference": "Patient/3df9cebe-07e7-427a-9fe9-cfd00d49222a"
          }
        ],
        "dosage": [
          {
            "text": "one daily",
            "timing": {
              "repeat": {
                "frequency": 1,
                "period": 1.0,
                "periodUnit": "d"
              }
            }
          }
        ],
        "adherence": {
          "code": {
            "coding": [
              {
                "system": "http://hl7.org/fhir/CodeSystem/medication-statement-adherence",
                "code": "taking",
                "display": "Taking"
              }
            ]
          }
        }
      },
      "request": {
        "method": "POST",
        "url": "MedicationStatement"
      }
    },
    {
      "fullUrl": "urn:uuid:0a738f3d-11a3-45a2-9c70-ea3498fcb181",
      "resource": {
        "resourceType": "Encounter",
        "id": "0a738f3d-11a3-45a2-9c70-ea3498fcb181",
        "identifier": [
          {
            "use": "temp",
            "value": "Encounter_Alexandra Petrova_20251021093151"
          }
        ],
        "status": "completed",
        "priority": {
          "coding": [
            {
              "system": "http://snomed.info/sct",
              "code": "17621005",
              "display": "Normal"
            }
          ]
        },
        "type": [
          {
            "coding": [
              {
                "system": "http://snomed.info/sct",
                "code": "11429006",
                "display": "Consultation"
              }
            ]
          }
        ],
        "subject": {
          "reference": "Patient/3df9cebe-07e7-427a-9fe9-cfd00d49222a",
          "display": "Alexandra Petrova"
        }
      },
      "request": {
        "method": "POST",
        "url": "Encounter"
      }
    },
    {
      "fullUrl": "urn:uuid:9bd4db81-c071-4ddd-b1fb-2c91337dcbe6",
      "resource": {
        "resourceType": "Observation",
        "id": "9bd4db81-c071-4ddd-b1fb-2c91337dcbe6",
        "status": "final",
        "category": [
          {
            "coding": [
              {
                "system": "http://terminology.hl7.org/CodeSystem/observation-category",
                "code": "laboratory",
                "display": "Laboratory"
              }
            ],
            "text": "Laboratory"
          }
        ],
        "code": {
          "coding": [
            {
              "system": "http://loinc.org",
              "code": "unknown",
              "display": "Liver Function Tests"
            }
          ],
          "text": "Liver Function Tests"
        },
        "subject": {
          "reference": "Patient/3df9cebe-07e7-427a-9fe9-cfd00d49222a"
        },
        "encounter": {
          "reference": "Encounter/0a738f3d-11a3-45a2-9c70-ea3498fcb181"
        },
        "effectiveDateTime": "2023-10-16",
        "interpretation": [
          {
            "coding": [
              {
                "system": "http://terminology.hl7.org/CodeSystem/v3-ObservationInterpretation",
                "code": "N",
                "display": "Normal"
              }
            ]
          }
        ]
      },
      "request": {
        "method": "POST",
        "url": "Observation"
      }
    },
    {
      "fullUrl": "urn:uuid:c7c4e319-6d8e-4669-9a66-5f8bd81a343d",
      "resource": {
        "resourceType": "Observation",
        "id": "c7c4e319-6d8e-4669-9a66-5f8bd81a343d",
        "status": "final",
        "category": [
          {
            "coding": [
              {
                "system": "http://terminology.hl7.org/CodeSystem/observation-category",
                "code": "laboratory",
                "display": "Laboratory"
              }
            ],
            "text": "Laboratory"
          }
        ],
        "code": {
          "coding": [
            {
              "system": "http://loinc.org",
              "code": "58410-2",
              "display": "Complete blood count panel"
            }
          ],
          "text": "Complete Blood Count"
        },
        "subject": {
          "reference": "Patient/3df9cebe-07e7-427a-9fe9-cfd00d49222a"
        },
        "encounter": {
          "reference": "Encounter/0a738f3d-11a3-45a2-9c70-ea3498fcb181"
        },
        "effectiveDateTime": "2023-10-16",
        "interpretation": [
          {
            "coding": [
              {
                "system": "http://terminology.hl7.org/CodeSystem/v3-ObservationInterpretation",
                "code": "N",
                "display": "Normal"
              }
            ]
          }
        ],
        "note": [
          {
            "text": "Definition: https://loinc.org/58410-2/"
          }
        ]
      },
      "request": {
        "method": "POST",
        "url": "Observation"
      }
    },
    {
      "fullUrl": "urn:uuid:a60afb20-18ed-4c82-b9e9-28c0733839fa",
      "resource": {
        "resourceType": "List",
        "id": "a60afb20-18ed-4c82-b9e9-28c0733839fa",
        "contained": [
          {
            "resourceType": "FamilyMemberHistory",
            "id": "fmh-2",
            "status": "completed",
            "patient": {
              "reference": "Patient/3df9cebe-07e7-427a-9fe9-cfd00d49222a"
            },
            "relationship": {
              "coding": [
                {
                  "system": "http://snomed.info/sct",
                  "code": "72705000",
                  "display": "Mother"
                }
              ]
            },
            "deceasedBoolean": false,
            "condition": [
              {
                "code": {
                  "coding": [
                    {
                      "system": "http://snomed.info/sct",
                      "code": "27296002",
                      "display": "Psychiatric"
                    }
                  ]
                }
              }
            ]
          }
        ],
        "status": "current",
        "mode": "snapshot",
        "code": {
          "coding": [
            {
              "system": "http://loinc.org",
              "code": "8670-2",
              "display": "History of family member diseases"
            }
          ]
        },
        "subject": [
          {
            "reference": "Patient/3df9cebe-07e7-427a-9fe9-cfd00d49222a"
          }
        ],
        "note": [
          {
            "text": "Both parents are alive."
          }
        ],
        "entry": [
          {
            "item": {
              "reference": "#fmh-2"
            }
          }
        ]
      },
      "request": {
        "method": "POST",
        "url": "FamilyMemberHistory"
      }
    }
  ]
}