{
  "resourceType": "Bundle",
  "type": "transaction",
  "entry": [
    {
      "fullUrl": "urn:uuid:0285bfcb-a821-4510-8024-118c7e6d6e2b",
      "resource": {
        "resourceType": "Patient",
        "id": "0285bfcb-a821-4510-8024-118c7e6d6e2b",
        "name": [
          {
            "family": "Dmitrieva",
            "given": [
              "Katerina"
            ]
          }
        ],
        "gender": "female",
        "address": [
          {}
        ]
      },
      "request": {
        "method": "POST",
        "url": "Patient"
      }
    },
    {
      "fullUrl": "urn:uuid:bd5e73f3-6030-4496-9b7d-5b5826a1589c",
      "resource": {
        "resourceType": "Encounter",
        "id": "bd5e73f3-6030-4496-9b7d-5b5826a1589c",
        "identifier": [
          {
            "use": "temp",
            "value": "Encounter_Katerina Dmitrieva_20251017182525"
          }
        ],
        "status": "completed",
        "priority": {
          "coding": [
            {
              "system": "http://snomed.info/sct",
              "code": "17621005",
              "display": "Normal"
            }
          ]
        },
        "type": [
          {
            "coding": [
              {
                "system": "http://snomed.info/sct",
                "code": "11429006",
                "display": "Consultation"
              }
            ]
          }
        ],
        "subject": {
          "reference": "Patient/0285bfcb-a821-4510-8024-118c7e6d6e2b",
          "display": "Katerina Dmitrieva"
        },
        "reason": [
          {
            "value": [
              {
                "concept": {
                  "text": "complaints of chronic, subtle tremors in her hands and mild difficulty with coordination"
                }
              }
            ]
          }
        ]
      },
      "request": {
        "method": "POST",
        "url": "Encounter"
      }
    },
    {
      "fullUrl": "urn:uuid:2c87285c-7ef1-4fcb-97f9-ce242e50be4d",
      "resource": {
        "resourceType": "Observation",
        "id": "2c87285c-7ef1-4fcb-97f9-ce242e50be4d",
        "status": "final",
        "category": [
          {
            "coding": [
              {
                "system": "http://terminology.hl7.org/CodeSystem/observation-category",
                "code": "laboratory",
                "display": "Laboratory"
              }
            ],
            "text": "Laboratory"
          }
        ],
        "code": {
          "coding": [
            {
              "system": "http://loinc.org",
              "code": "2064-4",
              "display": "Ceruloplasmin SerPl-mCnc"
            }
          ],
          "text": "Serum Ceruloplasmin"
        },
        "subject": {
          "reference": "Patient/0285bfcb-a821-4510-8024-118c7e6d6e2b"
        },
        "encounter": {
          "reference": "Encounter/bd5e73f3-6030-4496-9b7d-5b5826a1589c"
        },
        "effectiveDateTime": "2025-10-16",
        "valueQuantity": {
          "value": 7.0,
          "unit": "mg/dL",
          "system": "http://unitsofmeasure.org",
          "code": "mg/dL"
        },
        "interpretation": [
          {
            "coding": [
              {
                "system": "http://terminology.hl7.org/CodeSystem/v3-ObservationInterpretation",
                "code": "L",
                "display": "Low"
              }
            ]
          }
        ],
        "note": [
          {
            "text": "Definition: https://loinc.org/2064-4/"
          }
        ]
      },
      "request": {
        "method": "POST",
        "url": "Observation"
      }
    },
    {
      "fullUrl": "urn:uuid:b33b1fde-c559-44e6-bffd-c5029ccbf0c8",
      "resource": {
        "resourceType": "Observation",
        "id": "b33b1fde-c559-44e6-bffd-c5029ccbf0c8",
        "status": "final",
        "category": [
          {
            "coding": [
              {
                "system": "http://terminology.hl7.org/CodeSystem/observation-category",
                "code": "laboratory",
                "display": "Laboratory"
              }
            ],
            "text": "Laboratory"
          }
        ],
        "code": {
          "coding": [
            {
              "system": "http://loinc.org",
              "code": "unknown",
              "display": "24-hour Urinary Copper Excretion"
            }
          ],
          "text": "24-hour Urinary Copper Excretion"
        },
        "subject": {
          "reference": "Patient/0285bfcb-a821-4510-8024-118c7e6d6e2b"
        },
        "encounter": {
          "reference": "Encounter/bd5e73f3-6030-4496-9b7d-5b5826a1589c"
        },
        "effectiveDateTime": "2025-10-16",
        "valueQuantity": {
          "value": 400.0,
          "unit": "µg/24h",
          "system": "http://unitsofmeasure.org",
          "code": "µg/24h"
        },
        "interpretation": [
          {
            "coding": [
              {
                "system": "http://terminology.hl7.org/CodeSystem/v3-ObservationInterpretation",
                "code": "H",
                "display": "High"
              }
            ]
          }
        ]
      },
      "request": {
        "method": "POST",
        "url": "Observation"
      }
    },
    {
      "fullUrl": "urn:uuid:93fd3e1a-1efd-4929-b9f9-f9d28acf882f",
      "resource": {
        "resourceType": "Observation",
        "id": "93fd3e1a-1efd-4929-b9f9-f9d28acf882f",
        "status": "final",
        "category": [
          {
            "coding": [
              {
                "system": "http://terminology.hl7.org/CodeSystem/observation-category",
                "code": "laboratory",
                "display": "Laboratory"
              }
            ],
            "text": "Laboratory"
          }
        ],
        "code": {
          "coding": [
            {
              "system": "http://loinc.org",
              "code": "109066-1",
              "display": "Bilirub Indirect Msmt SerPl"
            }
          ],
          "text": "Serum Bilirubin"
        },
        "subject": {
          "reference": "Patient/0285bfcb-a821-4510-8024-118c7e6d6e2b"
        },
        "encounter": {
          "reference": "Encounter/bd5e73f3-6030-4496-9b7d-5b5826a1589c"
        },
        "effectiveDateTime": "2025-10-16",
        "interpretation": [
          {
            "coding": [
              {
                "system": "http://terminology.hl7.org/CodeSystem/v3-ObservationInterpretation",
                "code": "N",
                "display": "Normal"
              }
            ]
          }
        ],
        "note": [
          {
            "text": "Definition: https://loinc.org/109066-1/"
          }
        ]
      },
      "request": {
        "method": "POST",
        "url": "Observation"
      }
    },
    {
      "fullUrl": "urn:uuid:2b2e47e5-1a2e-4136-9539-3808919584dc",
      "resource": {
        "resourceType": "Observation",
        "id": "2b2e47e5-1a2e-4136-9539-3808919584dc",
        "status": "final",
        "category": [
          {
            "coding": [
              {
                "system": "http://terminology.hl7.org/CodeSystem/observation-category",
                "code": "exam",
                "display": "Exam"
              }
            ],
            "text": "Exam"
          }
        ],
        "code": {
          "coding": [
            {
              "system": "http://snomed.info/sct",
              "code": "49958005",
              "display": "Aspergillus clavatus tremors"
            }
          ],
          "text": "Tremors"
        },
        "subject": {
          "reference": "Patient/0285bfcb-a821-4510-8024-118c7e6d6e2b"
        },
        "encounter": {
          "reference": "Encounter/bd5e73f3-6030-4496-9b7d-5b5826a1589c"
        },
        "effectivePeriod": {
          "start": "2025-10-16"
        },
        "valueBoolean": true,
        "note": [
          {
            "text": "Definition: https://snomed.info/id/49958005"
          }
        ]
      },
      "request": {
        "method": "POST",
        "url": "Observation"
      }
    },
    {
      "fullUrl": "urn:uuid:7ef87f50-0ae3-4cfb-a369-972d50adc3e5",
      "resource": {
        "resourceType": "Observation",
        "id": "7ef87f50-0ae3-4cfb-a369-972d50adc3e5",
        "status": "final",
        "category": [
          {
            "coding": [
              {
                "system": "http://terminology.hl7.org/CodeSystem/observation-category",
                "code": "exam",
                "display": "Exam"
              }
            ],
            "text": "Exam"
          }
        ],
        "code": {
          "coding": [
            {
              "system": "http://snomed.info/sct",
              "code": "84229001",
              "display": "Fatigue"
            }
          ],
          "text": "Fatigue"
        },
        "subject": {
          "reference": "Patient/0285bfcb-a821-4510-8024-118c7e6d6e2b"
        },
        "encounter": {
          "reference": "Encounter/bd5e73f3-6030-4496-9b7d-5b5826a1589c"
        },
        "effectivePeriod": {
          "start": "2025-10-16"
        },
        "valueBoolean": true,
        "note": [
          {
            "text": "Definition: https://snomed.info/id/84229001"
          }
        ]
      },
      "request": {
        "method": "POST",
        "url": "Observation"
      }
    },
    {
      "fullUrl": "urn:uuid:1165e500-37bf-4548-885b-bba63ac1b98a",
      "resource": {
        "resourceType": "Observation",
        "id": "1165e500-37bf-4548-885b-bba63ac1b98a",
        "status": "final",
        "category": [
          {
            "coding": [
              {
                "system": "http://terminology.hl7.org/CodeSystem/observation-category",
                "code": "exam",
                "display": "Exam"
              }
            ],
            "text": "Exam"
          }
        ],
        "code": {
          "coding": [
            {
              "system": "http://snomed.info/sct",
              "code": "271697007",
              "display": "Muscle irritability"
            }
          ],
          "text": "Irritability"
        },
        "subject": {
          "reference": "Patient/0285bfcb-a821-4510-8024-118c7e6d6e2b"
        },
        "encounter": {
          "reference": "Encounter/bd5e73f3-6030-4496-9b7d-5b5826a1589c"
        },
        "effectivePeriod": {
          "start": "2025-10-16"
        },
        "valueBoolean": true,
        "note": [
          {
            "text": "Definition: https://snomed.info/id/271697007"
          }
        ]
      },
      "request": {
        "method": "POST",
        "url": "Observation"
      }
    },
    {
      "fullUrl": "urn:uuid:01293dd8-0c19-4029-947e-465769f5d577",
      "resource": {
        "resourceType": "Observation",
        "id": "01293dd8-0c19-4029-947e-465769f5d577",
        "status": "final",
        "category": [
          {
            "coding": [
              {
                "system": "http://terminology.hl7.org/CodeSystem/observation-category",
                "code": "exam",
                "display": "Exam"
              }
            ],
            "text": "Exam"
          }
        ],
        "code": {
          "coding": [
            {
              "system": "http://snomed.info/sct",
              "code": "8011004",
              "display": "Dysarthria"
            }
          ],
          "text": "Dysarthria"
        },
        "subject": {
          "reference": "Patient/0285bfcb-a821-4510-8024-118c7e6d6e2b"
        },
        "encounter": {
          "reference": "Encounter/bd5e73f3-6030-4496-9b7d-5b5826a1589c"
        },
        "effectivePeriod": {
          "start": "2025-10-16"
        },
        "valueBoolean": true,
        "note": [
          {
            "text": "Definition: https://snomed.info/id/8011004"
          }
        ]
      },
      "request": {
        "method": "POST",
        "url": "Observation"
      }
    },
    {
      "fullUrl": "urn:uuid:362d354a-1bac-4390-826d-7657f1377a57",
      "resource": {
        "resourceType": "Observation",
        "id": "362d354a-1bac-4390-826d-7657f1377a57",
        "status": "final",
        "category": [
          {
            "coding": [
              {
                "system": "http://terminology.hl7.org/CodeSystem/observation-category",
                "code": "exam",
                "display": "Exam"
              }
            ],
            "text": "Exam"
          }
        ],
        "code": {
          "coding": [
            {
              "system": "http://snomed.info/sct",
              "code": "30155000",
              "display": "Decerebrate rigidity"
            }
          ],
          "text": "Rigidity"
        },
        "subject": {
          "reference": "Patient/0285bfcb-a821-4510-8024-118c7e6d6e2b"
        },
        "encounter": {
          "reference": "Encounter/bd5e73f3-6030-4496-9b7d-5b5826a1589c"
        },
        "effectivePeriod": {
          "start": "2025-10-16"
        },
        "valueBoolean": true,
        "note": [
          {
            "text": "Definition: https://snomed.info/id/30155000"
          }
        ]
      },
      "request": {
        "method": "POST",
        "url": "Observation"
      }
    },
    {
      "fullUrl": "urn:uuid:2691914e-512f-4953-b043-cec22d4a15e1",
      "resource": {
        "resourceType": "List",
        "id": "2691914e-512f-4953-b043-cec22d4a15e1",
        "contained": [
          {
            "resourceType": "FamilyMemberHistory",
            "id": "fmh-1",
            "status": "completed",
            "patient": {
              "reference": "Patient/0285bfcb-a821-4510-8024-118c7e6d6e2b"
            },
            "relationship": {
              "coding": [
                {
                  "system": "http://snomed.info/sct",
                  "code": "72705000",
                  "display": "Mother"
                }
              ]
            },
            "deceasedBoolean": false,
            "condition": [
              {
                "code": {
                  "coding": [
                    {
                      "system": "http://snomed.info/sct",
                      "code": "192498004",
                      "display": "Enduring personality change after psychiatric illness"
                    }
                  ]
                }
              }
            ]
          }
        ],
        "status": "current",
        "mode": "snapshot",
        "code": {
          "coding": [
            {
              "system": "http://loinc.org",
              "code": "8670-2",
              "display": "History of family member diseases"
            }
          ]
        },
        "subject": [
          {
            "reference": "Patient/0285bfcb-a821-4510-8024-118c7e6d6e2b"
          }
        ],
        "entry": [
          {
            "item": {
              "reference": "#fmh-1"
            }
          }
        ]
      },
      "request": {
        "method": "POST",
        "url": "FamilyMemberHistory"
      }
    }
  ]
}