{
  "resourceType": "Bundle",
  "type": "transaction",
  "entry": [
    {
      "fullUrl": "urn:uuid:f6a33bdd-696f-4821-955b-6ab92ec86e1d",
      "resource": {
        "resourceType": "Patient",
        "id": "f6a33bdd-696f-4821-955b-6ab92ec86e1d",
        "name": [
          {
            "family": "Dmitrieva",
            "given": [
              "Katerina"
            ]
          }
        ],
        "gender": "female",
        "birthDate": "1996-01-01",
        "address": [
          {}
        ]
      },
      "request": {
        "method": "POST",
        "url": "Patient"
      }
    },
    {
      "fullUrl": "urn:uuid:b7758386-4fec-4e28-b072-5681d69996a3",
      "resource": {
        "resourceType": "Encounter",
        "id": "b7758386-4fec-4e28-b072-5681d69996a3",
        "identifier": [
          {
            "use": "temp",
            "value": "Encounter_Katerina Dmitrieva_20251020131537"
          }
        ],
        "status": "completed",
        "priority": {
          "coding": [
            {
              "system": "http://snomed.info/sct",
              "code": "17621005",
              "display": "Normal"
            }
          ]
        },
        "type": [
          {
            "coding": [
              {
                "system": "http://snomed.info/sct",
                "code": "11429006",
                "display": "Consultation"
              }
            ]
          }
        ],
        "subject": {
          "reference": "Patient/f6a33bdd-696f-4821-955b-6ab92ec86e1d",
          "display": "Katerina Dmitrieva"
        },
        "reason": [
          {
            "value": [
              {
                "concept": {
                  "text": "complaints of chronic, subtle tremors in her hands and mild difficulty with coordination"
                }
              }
            ]
          }
        ]
      },
      "request": {
        "method": "POST",
        "url": "Encounter"
      }
    },
    {
      "fullUrl": "urn:uuid:508434c9-9e5c-4026-8481-67e094150f8b",
      "resource": {
        "resourceType": "Observation",
        "id": "508434c9-9e5c-4026-8481-67e094150f8b",
        "status": "final",
        "category": [
          {
            "coding": [
              {
                "system": "http://terminology.hl7.org/CodeSystem/observation-category",
                "code": "laboratory",
                "display": "Laboratory"
              }
            ],
            "text": "Laboratory"
          }
        ],
        "code": {
          "coding": [
            {
              "system": "http://loinc.org",
              "code": "2064-4",
              "display": "Ceruloplasmin SerPl-mCnc"
            }
          ],
          "text": "Serum Ceruloplasmin"
        },
        "subject": {
          "reference": "Patient/f6a33bdd-696f-4821-955b-6ab92ec86e1d"
        },
        "encounter": {
          "reference": "Encounter/b7758386-4fec-4e28-b072-5681d69996a3"
        },
        "effectiveDateTime": "2025-10-16",
        "valueQuantity": {
          "value": 7.0,
          "unit": "mg/dL",
          "system": "http://unitsofmeasure.org",
          "code": "mg/dL"
        },
        "interpretation": [
          {
            "coding": [
              {
                "system": "http://terminology.hl7.org/CodeSystem/v3-ObservationInterpretation",
                "code": "L",
                "display": "Low"
              }
            ]
          }
        ],
        "note": [
          {
            "text": "Definition: https://loinc.org/2064-4/"
          }
        ]
      },
      "request": {
        "method": "POST",
        "url": "Observation"
      }
    },
    {
      "fullUrl": "urn:uuid:04024559-4001-42e0-94db-2c0bfff80c1a",
      "resource": {
        "resourceType": "Observation",
        "id": "04024559-4001-42e0-94db-2c0bfff80c1a",
        "status": "final",
        "category": [
          {
            "coding": [
              {
                "system": "http://terminology.hl7.org/CodeSystem/observation-category",
                "code": "laboratory",
                "display": "Laboratory"
              }
            ],
            "text": "Laboratory"
          }
        ],
        "code": {
          "coding": [
            {
              "system": "http://loinc.org",
              "code": "unknown",
              "display": "24-hour Urinary Copper Excretion"
            }
          ],
          "text": "24-hour Urinary Copper Excretion"
        },
        "subject": {
          "reference": "Patient/f6a33bdd-696f-4821-955b-6ab92ec86e1d"
        },
        "encounter": {
          "reference": "Encounter/b7758386-4fec-4e28-b072-5681d69996a3"
        },
        "effectiveDateTime": "2025-10-16",
        "valueQuantity": {
          "value": 400.0,
          "unit": "µg/24h",
          "system": "http://unitsofmeasure.org",
          "code": "µg/24h"
        },
        "interpretation": [
          {
            "coding": [
              {
                "system": "http://terminology.hl7.org/CodeSystem/v3-ObservationInterpretation",
                "code": "H",
                "display": "High"
              }
            ]
          }
        ]
      },
      "request": {
        "method": "POST",
        "url": "Observation"
      }
    },
    {
      "fullUrl": "urn:uuid:11df8635-59fd-407c-abf2-184c17bfd147",
      "resource": {
        "resourceType": "Observation",
        "id": "11df8635-59fd-407c-abf2-184c17bfd147",
        "status": "final",
        "category": [
          {
            "coding": [
              {
                "system": "http://terminology.hl7.org/CodeSystem/observation-category",
                "code": "laboratory",
                "display": "Laboratory"
              }
            ],
            "text": "Laboratory"
          }
        ],
        "code": {
          "coding": [
            {
              "system": "http://loinc.org",
              "code": "109066-1",
              "display": "Bilirub Indirect Msmt SerPl"
            }
          ],
          "text": "Serum Bilirubin"
        },
        "subject": {
          "reference": "Patient/f6a33bdd-696f-4821-955b-6ab92ec86e1d"
        },
        "encounter": {
          "reference": "Encounter/b7758386-4fec-4e28-b072-5681d69996a3"
        },
        "effectiveDateTime": "2025-10-16",
        "interpretation": [
          {
            "coding": [
              {
                "system": "http://terminology.hl7.org/CodeSystem/v3-ObservationInterpretation",
                "code": "N",
                "display": "Normal"
              }
            ]
          }
        ],
        "note": [
          {
            "text": "Definition: https://loinc.org/109066-1/"
          }
        ]
      },
      "request": {
        "method": "POST",
        "url": "Observation"
      }
    },
    {
      "fullUrl": "urn:uuid:f449db51-509a-4c18-8d74-9cc3745732d8",
      "resource": {
        "resourceType": "Observation",
        "id": "f449db51-509a-4c18-8d74-9cc3745732d8",
        "status": "final",
        "category": [
          {
            "coding": [
              {
                "system": "http://terminology.hl7.org/CodeSystem/observation-category",
                "code": "exam",
                "display": "Exam"
              }
            ],
            "text": "Exam"
          }
        ],
        "code": {
          "coding": [
            {
              "system": "http://snomed.info/sct",
              "code": "49958005",
              "display": "Aspergillus clavatus tremors"
            }
          ],
          "text": "Tremors"
        },
        "subject": {
          "reference": "Patient/f6a33bdd-696f-4821-955b-6ab92ec86e1d"
        },
        "encounter": {
          "reference": "Encounter/b7758386-4fec-4e28-b072-5681d69996a3"
        },
        "effectivePeriod": {
          "start": "2025-10-16"
        },
        "valueBoolean": true,
        "note": [
          {
            "text": "Definition: https://snomed.info/id/49958005"
          }
        ]
      },
      "request": {
        "method": "POST",
        "url": "Observation"
      }
    },
    {
      "fullUrl": "urn:uuid:558ee3a6-1303-4712-998a-ca1c81e0a12b",
      "resource": {
        "resourceType": "Observation",
        "id": "558ee3a6-1303-4712-998a-ca1c81e0a12b",
        "status": "final",
        "category": [
          {
            "coding": [
              {
                "system": "http://terminology.hl7.org/CodeSystem/observation-category",
                "code": "exam",
                "display": "Exam"
              }
            ],
            "text": "Exam"
          }
        ],
        "code": {
          "coding": [
            {
              "system": "http://snomed.info/sct",
              "code": "84229001",
              "display": "Fatigue"
            }
          ],
          "text": "Fatigue"
        },
        "subject": {
          "reference": "Patient/f6a33bdd-696f-4821-955b-6ab92ec86e1d"
        },
        "encounter": {
          "reference": "Encounter/b7758386-4fec-4e28-b072-5681d69996a3"
        },
        "effectivePeriod": {
          "start": "2025-10-16"
        },
        "valueBoolean": true,
        "note": [
          {
            "text": "Definition: https://snomed.info/id/84229001"
          }
        ]
      },
      "request": {
        "method": "POST",
        "url": "Observation"
      }
    },
    {
      "fullUrl": "urn:uuid:3692332f-1df3-4e21-ab06-b49163110bfd",
      "resource": {
        "resourceType": "Observation",
        "id": "3692332f-1df3-4e21-ab06-b49163110bfd",
        "status": "final",
        "category": [
          {
            "coding": [
              {
                "system": "http://terminology.hl7.org/CodeSystem/observation-category",
                "code": "exam",
                "display": "Exam"
              }
            ],
            "text": "Exam"
          }
        ],
        "code": {
          "coding": [
            {
              "system": "http://snomed.info/sct",
              "code": "271697007",
              "display": "Muscle irritability"
            }
          ],
          "text": "Irritability"
        },
        "subject": {
          "reference": "Patient/f6a33bdd-696f-4821-955b-6ab92ec86e1d"
        },
        "encounter": {
          "reference": "Encounter/b7758386-4fec-4e28-b072-5681d69996a3"
        },
        "effectivePeriod": {
          "start": "2025-10-16"
        },
        "valueBoolean": true,
        "note": [
          {
            "text": "Definition: https://snomed.info/id/271697007"
          }
        ]
      },
      "request": {
        "method": "POST",
        "url": "Observation"
      }
    },
    {
      "fullUrl": "urn:uuid:7c9e51d6-a65f-4f80-ac96-dc2dc9f33041",
      "resource": {
        "resourceType": "Observation",
        "id": "7c9e51d6-a65f-4f80-ac96-dc2dc9f33041",
        "status": "final",
        "category": [
          {
            "coding": [
              {
                "system": "http://terminology.hl7.org/CodeSystem/observation-category",
                "code": "exam",
                "display": "Exam"
              }
            ],
            "text": "Exam"
          }
        ],
        "code": {
          "coding": [
            {
              "system": "http://snomed.info/sct",
              "code": "8011004",
              "display": "Dysarthria"
            }
          ],
          "text": "Dysarthria"
        },
        "subject": {
          "reference": "Patient/f6a33bdd-696f-4821-955b-6ab92ec86e1d"
        },
        "encounter": {
          "reference": "Encounter/b7758386-4fec-4e28-b072-5681d69996a3"
        },
        "effectivePeriod": {
          "start": "2025-10-16"
        },
        "valueBoolean": true,
        "note": [
          {
            "text": "Definition: https://snomed.info/id/8011004"
          }
        ]
      },
      "request": {
        "method": "POST",
        "url": "Observation"
      }
    },
    {
      "fullUrl": "urn:uuid:c1cf805f-338b-4cd2-95a7-92b0053d628f",
      "resource": {
        "resourceType": "Observation",
        "id": "c1cf805f-338b-4cd2-95a7-92b0053d628f",
        "status": "final",
        "category": [
          {
            "coding": [
              {
                "system": "http://terminology.hl7.org/CodeSystem/observation-category",
                "code": "exam",
                "display": "Exam"
              }
            ],
            "text": "Exam"
          }
        ],
        "code": {
          "coding": [
            {
              "system": "http://snomed.info/sct",
              "code": "30155000",
              "display": "Decerebrate rigidity"
            }
          ],
          "text": "Rigidity"
        },
        "subject": {
          "reference": "Patient/f6a33bdd-696f-4821-955b-6ab92ec86e1d"
        },
        "encounter": {
          "reference": "Encounter/b7758386-4fec-4e28-b072-5681d69996a3"
        },
        "effectivePeriod": {
          "start": "2025-10-16"
        },
        "valueBoolean": true,
        "note": [
          {
            "text": "Definition: https://snomed.info/id/30155000"
          }
        ]
      },
      "request": {
        "method": "POST",
        "url": "Observation"
      }
    },
    {
      "fullUrl": "urn:uuid:4526854e-989c-4bee-9fc8-44208c733857",
      "resource": {
        "resourceType": "List",
        "id": "4526854e-989c-4bee-9fc8-44208c733857",
        "contained": [
          {
            "resourceType": "FamilyMemberHistory",
            "id": "fmh-1",
            "status": "completed",
            "patient": {
              "reference": "Patient/f6a33bdd-696f-4821-955b-6ab92ec86e1d"
            },
            "relationship": {
              "coding": [
                {
                  "system": "http://snomed.info/sct",
                  "code": "72705000",
                  "display": "Mother"
                }
              ]
            },
            "deceasedBoolean": false,
            "condition": [
              {
                "code": {
                  "coding": [
                    {
                      "system": "http://snomed.info/sct",
                      "code": "192498004",
                      "display": "Enduring personality change after psychiatric illness"
                    }
                  ]
                }
              }
            ]
          }
        ],
        "status": "current",
        "mode": "snapshot",
        "code": {
          "coding": [
            {
              "system": "http://loinc.org",
              "code": "8670-2",
              "display": "History of family member diseases"
            }
          ]
        },
        "subject": [
          {
            "reference": "Patient/f6a33bdd-696f-4821-955b-6ab92ec86e1d"
          }
        ],
        "entry": [
          {
            "item": {
              "reference": "#fmh-1"
            }
          }
        ]
      },
      "request": {
        "method": "POST",
        "url": "FamilyMemberHistory"
      }
    }
  ]
}