{
  "resourceType": "Bundle",
  "type": "transaction",
  "entry": [
    {
      "fullUrl": "urn:uuid:93ddb671-5862-4574-8be1-150dec3bafec",
      "resource": {
        "resourceType": "Patient",
        "id": "93ddb671-5862-4574-8be1-150dec3bafec",
        "name": [
          {
            "family": "Rodriguez",
            "given": [
              "Sofia"
            ]
          }
        ],
        "gender": "female",
        "birthDate": "1993-01-01",
        "address": [
          {}
        ]
      },
      "request": {
        "method": "POST",
        "url": "Patient"
      }
    },
    {
      "fullUrl": "urn:uuid:b242e892-b7a8-43d0-9334-c12b6a1fb8a2",
      "resource": {
        "resourceType": "Encounter",
        "id": "b242e892-b7a8-43d0-9334-c12b6a1fb8a2",
        "identifier": [
          {
            "use": "temp",
            "value": "Encounter_Sofia Rodriguez_20251020132855"
          }
        ],
        "status": "completed",
        "priority": {
          "coding": [
            {
              "system": "http://snomed.info/sct",
              "code": "17621005",
              "display": "Normal"
            }
          ]
        },
        "type": [
          {
            "coding": [
              {
                "system": "http://snomed.info/sct",
                "code": "11429006",
                "display": "Consultation"
              }
            ]
          }
        ],
        "subject": {
          "reference": "Patient/93ddb671-5862-4574-8be1-150dec3bafec",
          "display": "Sofia Rodriguez"
        },
        "reason": [
          {
            "value": [
              {
                "concept": {
                  "text": "intermittent episodes of burning pain in her hands and feet"
                }
              }
            ]
          }
        ]
      },
      "request": {
        "method": "POST",
        "url": "Encounter"
      }
    },
    {
      "fullUrl": "urn:uuid:f4dc9a2b-cce5-4bd6-b023-996c654259a2",
      "resource": {
        "resourceType": "Observation",
        "id": "f4dc9a2b-cce5-4bd6-b023-996c654259a2",
        "status": "final",
        "category": [
          {
            "coding": [
              {
                "system": "http://terminology.hl7.org/CodeSystem/observation-category",
                "code": "laboratory",
                "display": "Laboratory"
              }
            ],
            "text": "Laboratory"
          }
        ],
        "code": {
          "coding": [
            {
              "system": "http://loinc.org",
              "code": "24335-2",
              "display": "Creatine kinase panel"
            }
          ],
          "text": "Creatine Kinase"
        },
        "subject": {
          "reference": "Patient/93ddb671-5862-4574-8be1-150dec3bafec"
        },
        "encounter": {
          "reference": "Encounter/b242e892-b7a8-43d0-9334-c12b6a1fb8a2"
        },
        "effectiveDateTime": "2025-10-16",
        "valueQuantity": {
          "value": 180.0,
          "unit": "U/L",
          "system": "http://unitsofmeasure.org",
          "code": "U/L"
        },
        "note": [
          {
            "text": "Definition: https://loinc.org/24335-2/"
          }
        ]
      },
      "request": {
        "method": "POST",
        "url": "Observation"
      }
    },
    {
      "fullUrl": "urn:uuid:9cbac2eb-f08d-4e85-afe2-0dda998485a4",
      "resource": {
        "resourceType": "Observation",
        "id": "9cbac2eb-f08d-4e85-afe2-0dda998485a4",
        "status": "final",
        "category": [
          {
            "coding": [
              {
                "system": "http://terminology.hl7.org/CodeSystem/observation-category",
                "code": "laboratory",
                "display": "Laboratory"
              }
            ],
            "text": "Laboratory"
          }
        ],
        "code": {
          "coding": [
            {
              "system": "http://loinc.org",
              "code": "81226-3",
              "display": "Electrolyte imbalance"
            }
          ],
          "text": "Electrolyte"
        },
        "subject": {
          "reference": "Patient/93ddb671-5862-4574-8be1-150dec3bafec"
        },
        "encounter": {
          "reference": "Encounter/b242e892-b7a8-43d0-9334-c12b6a1fb8a2"
        },
        "effectiveDateTime": "2025-10-16",
        "interpretation": [
          {
            "coding": [
              {
                "system": "http://terminology.hl7.org/CodeSystem/v3-ObservationInterpretation",
                "code": "N",
                "display": "Normal"
              }
            ]
          }
        ],
        "note": [
          {
            "text": "Definition: https://loinc.org/81226-3/"
          }
        ]
      },
      "request": {
        "method": "POST",
        "url": "Observation"
      }
    },
    {
      "fullUrl": "urn:uuid:73f8ad2a-2e66-46be-a6a2-4f01a8b2511e",
      "resource": {
        "resourceType": "Observation",
        "id": "73f8ad2a-2e66-46be-a6a2-4f01a8b2511e",
        "status": "final",
        "category": [
          {
            "coding": [
              {
                "system": "http://terminology.hl7.org/CodeSystem/observation-category",
                "code": "laboratory",
                "display": "Laboratory"
              }
            ],
            "text": "Laboratory"
          }
        ],
        "code": {
          "coding": [
            {
              "system": "http://loinc.org",
              "code": "58410-2",
              "display": "Complete blood count panel"
            }
          ],
          "text": "Complete Blood Count"
        },
        "subject": {
          "reference": "Patient/93ddb671-5862-4574-8be1-150dec3bafec"
        },
        "encounter": {
          "reference": "Encounter/b242e892-b7a8-43d0-9334-c12b6a1fb8a2"
        },
        "effectiveDateTime": "2025-10-16",
        "interpretation": [
          {
            "coding": [
              {
                "system": "http://terminology.hl7.org/CodeSystem/v3-ObservationInterpretation",
                "code": "N",
                "display": "Normal"
              }
            ]
          }
        ],
        "note": [
          {
            "text": "Definition: https://loinc.org/58410-2/"
          }
        ]
      },
      "request": {
        "method": "POST",
        "url": "Observation"
      }
    },
    {
      "fullUrl": "urn:uuid:34b3ca60-56bf-431a-a4d2-c9d42b61ef46",
      "resource": {
        "resourceType": "Observation",
        "id": "34b3ca60-56bf-431a-a4d2-c9d42b61ef46",
        "status": "final",
        "category": [
          {
            "coding": [
              {
                "system": "http://terminology.hl7.org/CodeSystem/observation-category",
                "code": "exam",
                "display": "Exam"
              }
            ],
            "text": "Exam"
          }
        ],
        "code": {
          "coding": [
            {
              "system": "http://snomed.info/sct",
              "code": "36031001",
              "display": "Burning feet"
            }
          ],
          "text": "Burning pain in hands and feet"
        },
        "subject": {
          "reference": "Patient/93ddb671-5862-4574-8be1-150dec3bafec"
        },
        "encounter": {
          "reference": "Encounter/b242e892-b7a8-43d0-9334-c12b6a1fb8a2"
        },
        "effectivePeriod": {
          "start": "2025-10-16"
        },
        "valueBoolean": true,
        "note": [
          {
            "text": "Definition: https://snomed.info/id/36031001"
          }
        ]
      },
      "request": {
        "method": "POST",
        "url": "Observation"
      }
    },
    {
      "fullUrl": "urn:uuid:341ce6f7-b876-4c66-9311-8c65329ff1ff",
      "resource": {
        "resourceType": "Observation",
        "id": "341ce6f7-b876-4c66-9311-8c65329ff1ff",
        "status": "final",
        "category": [
          {
            "coding": [
              {
                "system": "http://terminology.hl7.org/CodeSystem/observation-category",
                "code": "exam",
                "display": "Exam"
              }
            ],
            "text": "Exam"
          }
        ],
        "code": {
          "coding": [
            {
              "system": "http://snomed.info/sct",
              "code": "786837007",
              "display": "Tingling pain"
            }
          ],
          "text": "Tingling"
        },
        "subject": {
          "reference": "Patient/93ddb671-5862-4574-8be1-150dec3bafec"
        },
        "encounter": {
          "reference": "Encounter/b242e892-b7a8-43d0-9334-c12b6a1fb8a2"
        },
        "effectivePeriod": {
          "start": "2025-10-16"
        },
        "valueBoolean": true,
        "note": [
          {
            "text": "Definition: https://snomed.info/id/786837007"
          }
        ]
      },
      "request": {
        "method": "POST",
        "url": "Observation"
      }
    },
    {
      "fullUrl": "urn:uuid:02508e5b-9734-4362-a100-eacc25aa190d",
      "resource": {
        "resourceType": "Observation",
        "id": "02508e5b-9734-4362-a100-eacc25aa190d",
        "status": "final",
        "category": [
          {
            "coding": [
              {
                "system": "http://terminology.hl7.org/CodeSystem/observation-category",
                "code": "exam",
                "display": "Exam"
              }
            ],
            "text": "Exam"
          }
        ],
        "code": {
          "coding": [
            {
              "system": "http://snomed.info/sct",
              "code": "44077006",
              "display": "Numbness"
            }
          ],
          "text": "Numbness"
        },
        "subject": {
          "reference": "Patient/93ddb671-5862-4574-8be1-150dec3bafec"
        },
        "encounter": {
          "reference": "Encounter/b242e892-b7a8-43d0-9334-c12b6a1fb8a2"
        },
        "effectivePeriod": {
          "start": "2025-10-16"
        },
        "valueBoolean": true,
        "note": [
          {
            "text": "Definition: https://snomed.info/id/44077006"
          }
        ]
      },
      "request": {
        "method": "POST",
        "url": "Observation"
      }
    },
    {
      "fullUrl": "urn:uuid:d94466d0-8532-4533-b603-f7f0adb5c05c",
      "resource": {
        "resourceType": "Observation",
        "id": "d94466d0-8532-4533-b603-f7f0adb5c05c",
        "status": "final",
        "category": [
          {
            "coding": [
              {
                "system": "http://terminology.hl7.org/CodeSystem/observation-category",
                "code": "vital-signs",
                "display": "Vital Signs"
              }
            ],
            "text": "Vital Signs"
          }
        ],
        "code": {
          "coding": [
            {
              "system": "http://loinc.org",
              "code": "8310-5",
              "display": "Body temperature"
            }
          ],
          "text": "temperature"
        },
        "subject": {
          "reference": "Patient/93ddb671-5862-4574-8be1-150dec3bafec"
        },
        "encounter": {
          "reference": "Encounter/b242e892-b7a8-43d0-9334-c12b6a1fb8a2"
        },
        "effectiveDateTime": "2025-10-16",
        "valueQuantity": {
          "value": 36.8,
          "unit": "degrees Celsius",
          "system": "http://unitsofmeasure.org",
          "code": "degrees Celsius"
        },
        "interpretation": [
          {
            "coding": [
              {
                "system": "http://terminology.hl7.org/CodeSystem/v3-ObservationInterpretation",
                "code": "N",
                "display": "Normal"
              }
            ],
            "text": "Normal"
          }
        ]
      },
      "request": {
        "method": "POST",
        "url": "Observation"
      }
    },
    {
      "fullUrl": "urn:uuid:24d19f97-9023-4fb7-b410-18b27150fc63",
      "resource": {
        "resourceType": "Observation",
        "id": "24d19f97-9023-4fb7-b410-18b27150fc63",
        "status": "final",
        "category": [
          {
            "coding": [
              {
                "system": "http://terminology.hl7.org/CodeSystem/observation-category",
                "code": "vital-signs",
                "display": "Vital Signs"
              }
            ],
            "text": "Vital Signs"
          }
        ],
        "code": {
          "coding": [
            {
              "system": "http://loinc.org",
              "code": "8337-8",
              "display": "Bdy weight special circumstances"
            }
          ],
          "text": "weight"
        },
        "subject": {
          "reference": "Patient/93ddb671-5862-4574-8be1-150dec3bafec"
        },
        "encounter": {
          "reference": "Encounter/b242e892-b7a8-43d0-9334-c12b6a1fb8a2"
        },
        "effectiveDateTime": "2025-10-16",
        "valueQuantity": {
          "value": 58.0,
          "unit": "kilograms",
          "system": "http://unitsofmeasure.org",
          "code": "kilograms"
        },
        "interpretation": [
          {
            "coding": [
              {
                "system": "http://terminology.hl7.org/CodeSystem/v3-ObservationInterpretation",
                "code": "N",
                "display": "Normal"
              }
            ],
            "text": "Normal"
          }
        ]
      },
      "request": {
        "method": "POST",
        "url": "Observation"
      }
    },
    {
      "fullUrl": "urn:uuid:68d381a7-cca7-415b-a2b3-4619ca757cce",
      "resource": {
        "resourceType": "Observation",
        "id": "68d381a7-cca7-415b-a2b3-4619ca757cce",
        "status": "final",
        "category": [
          {
            "coding": [
              {
                "system": "http://terminology.hl7.org/CodeSystem/observation-category",
                "code": "vital-signs",
                "display": "Vital Signs"
              }
            ],
            "text": "Vital Signs"
          }
        ],
        "code": {
          "coding": [
            {
              "system": "http://loinc.org",
              "code": "92998-4",
              "display": "Lower segment"
            }
          ],
          "text": "height"
        },
        "subject": {
          "reference": "Patient/93ddb671-5862-4574-8be1-150dec3bafec"
        },
        "encounter": {
          "reference": "Encounter/b242e892-b7a8-43d0-9334-c12b6a1fb8a2"
        },
        "effectiveDateTime": "2025-10-16",
        "valueQuantity": {
          "value": 165.0,
          "unit": "centimeters",
          "system": "http://unitsofmeasure.org",
          "code": "centimeters"
        },
        "interpretation": [
          {
            "coding": [
              {
                "system": "http://terminology.hl7.org/CodeSystem/v3-ObservationInterpretation",
                "code": "N",
                "display": "Normal"
              }
            ],
            "text": "Normal"
          }
        ]
      },
      "request": {
        "method": "POST",
        "url": "Observation"
      }
    },
    {
      "fullUrl": "urn:uuid:984b9ca2-417c-4868-ac82-457990ccab1e",
      "resource": {
        "resourceType": "Observation",
        "id": "984b9ca2-417c-4868-ac82-457990ccab1e",
        "status": "final",
        "category": [
          {
            "coding": [
              {
                "system": "http://terminology.hl7.org/CodeSystem/observation-category",
                "code": "vital-signs",
                "display": "Vital Signs"
              }
            ],
            "text": "Vital Signs"
          }
        ],
        "code": {
          "coding": [
            {
              "system": "http://loinc.org",
              "code": "97057-4",
              "display": "Body mass index"
            }
          ],
          "text": "body mass index"
        },
        "subject": {
          "reference": "Patient/93ddb671-5862-4574-8be1-150dec3bafec"
        },
        "encounter": {
          "reference": "Encounter/b242e892-b7a8-43d0-9334-c12b6a1fb8a2"
        },
        "effectiveDateTime": "2025-10-16",
        "interpretation": [
          {
            "coding": [
              {
                "system": "http://terminology.hl7.org/CodeSystem/v3-ObservationInterpretation",
                "code": "N",
                "display": "Normal"
              }
            ],
            "text": "Normal"
          }
        ]
      },
      "request": {
        "method": "POST",
        "url": "Observation"
      }
    },
    {
      "fullUrl": "urn:uuid:2cceb758-35c7-4fa1-9022-cdf3cff400a9",
      "resource": {
        "resourceType": "MedicationStatement",
        "id": "2cceb758-35c7-4fa1-9022-cdf3cff400a9",
        "status": "recorded",
        "medication": {
          "concept": {
            "coding": [
              {
                "system": "http://snomed.info/sct",
                "code": "387517004",
                "display": "Acetaminophen"
              }
            ],
            "text": "Acetaminophen"
          }
        },
        "subject": {
          "reference": "Patient/93ddb671-5862-4574-8be1-150dec3bafec"
        },
        "encounter": {
          "reference": "Encounter/b242e892-b7a8-43d0-9334-c12b6a1fb8a2"
        },
        "effectiveDateTime": "2025-10-16",
        "informationSource": [
          {
            "reference": "Patient/93ddb671-5862-4574-8be1-150dec3bafec"
          }
        ],
        "dosage": [
          {
            "text": "500 milligrams every six hours",
            "timing": {
              "repeat": {
                "frequency": 4,
                "period": 1.0,
                "periodUnit": "d"
              }
            }
          }
        ]
      },
      "request": {
        "method": "POST",
        "url": "MedicationStatement"
      }
    },
    {
      "fullUrl": "urn:uuid:8ebd7ab9-a3de-4c01-b487-b45b459c6643",
      "resource": {
        "resourceType": "Encounter",
        "id": "8ebd7ab9-a3de-4c01-b487-b45b459c6643",
        "identifier": [
          {
            "use": "temp",
            "value": "Encounter_Sofia Rodriguez_20251020132907"
          }
        ],
        "status": "completed",
        "priority": {
          "coding": [
            {
              "system": "http://snomed.info/sct",
              "code": "17621005",
              "display": "Normal"
            }
          ]
        },
        "type": [
          {
            "coding": [
              {
                "system": "http://snomed.info/sct",
                "code": "11429006",
                "display": "Consultation"
              }
            ]
          }
        ],
        "subject": {
          "reference": "Patient/93ddb671-5862-4574-8be1-150dec3bafec",
          "display": "Sofia Rodriguez"
        },
        "reason": [
          {
            "value": [
              {
                "concept": {
                  "text": "similar complaint"
                }
              }
            ]
          }
        ]
      },
      "request": {
        "method": "POST",
        "url": "Encounter"
      }
    },
    {
      "fullUrl": "urn:uuid:686051e3-dbc7-4171-b45d-2aac417d0c78",
      "resource": {
        "resourceType": "Observation",
        "id": "686051e3-dbc7-4171-b45d-2aac417d0c78",
        "status": "final",
        "category": [
          {
            "coding": [
              {
                "system": "http://terminology.hl7.org/CodeSystem/observation-category",
                "code": "exam",
                "display": "Exam"
              }
            ],
            "text": "Exam"
          }
        ],
        "code": {
          "coding": [
            {
              "system": "http://snomed.info/sct",
              "code": "36031001",
              "display": "Burning feet"
            }
          ],
          "text": "Burning pain in hands and feet"
        },
        "subject": {
          "reference": "Patient/93ddb671-5862-4574-8be1-150dec3bafec"
        },
        "encounter": {
          "reference": "Encounter/8ebd7ab9-a3de-4c01-b487-b45b459c6643"
        },
        "effectivePeriod": {
          "start": "2023-01-01"
        },
        "valueBoolean": true,
        "note": [
          {
            "text": "Definition: https://snomed.info/id/36031001"
          }
        ]
      },
      "request": {
        "method": "POST",
        "url": "Observation"
      }
    },
    {
      "fullUrl": "urn:uuid:75b99f1f-111e-4882-93ff-76956ebb5fae",
      "resource": {
        "resourceType": "List",
        "id": "75b99f1f-111e-4882-93ff-76956ebb5fae",
        "contained": [
          {
            "resourceType": "FamilyMemberHistory",
            "id": "fmh-2",
            "status": "completed",
            "patient": {
              "reference": "Patient/93ddb671-5862-4574-8be1-150dec3bafec"
            },
            "relationship": {
              "coding": [
                {
                  "system": "http://snomed.info/sct",
                  "code": "72705000",
                  "display": "Mother"
                }
              ]
            },
            "deceasedBoolean": false,
            "condition": [
              {
                "code": {
                  "coding": [
                    {
                      "system": "http://snomed.info/sct",
                      "code": "64715009",
                      "display": "Hypertensive heart disease"
                    }
                  ]
                }
              }
            ]
          }
        ],
        "status": "current",
        "mode": "snapshot",
        "code": {
          "coding": [
            {
              "system": "http://loinc.org",
              "code": "8670-2",
              "display": "History of family member diseases"
            }
          ]
        },
        "subject": [
          {
            "reference": "Patient/93ddb671-5862-4574-8be1-150dec3bafec"
          }
        ],
        "entry": [
          {
            "item": {
              "reference": "#fmh-2"
            }
          }
        ]
      },
      "request": {
        "method": "POST",
        "url": "FamilyMemberHistory"
      }
    }
  ]
}