{
  "resourceType": "Bundle",
  "type": "transaction",
  "entry": [
    {
      "fullUrl": "urn:uuid:a64541ad-caf1-4195-8367-a6596cc872d0",
      "resource": {
        "resourceType": "Patient",
        "id": "a64541ad-caf1-4195-8367-a6596cc872d0",
        "name": [
          {
            "family": "Kuznetsova",
            "given": [
              "Anya"
            ]
          }
        ],
        "gender": "female",
        "birthDate": "1996-07-04",
        "address": [
          {}
        ]
      },
      "request": {
        "method": "POST",
        "url": "Patient"
      }
    },
    {
      "fullUrl": "urn:uuid:7b5a0d99-f9da-431a-86cd-966a53f39fa4",
      "resource": {
        "resourceType": "Encounter",
        "id": "7b5a0d99-f9da-431a-86cd-966a53f39fa4",
        "identifier": [
          {
            "use": "temp",
            "value": "Encounter_Anya Kuznetsova_20251022152235"
          }
        ],
        "status": "completed",
        "priority": {
          "coding": [
            {
              "system": "http://snomed.info/sct",
              "code": "17621005",
              "display": "Normal"
            }
          ]
        },
        "type": [
          {
            "coding": [
              {
                "system": "http://snomed.info/sct",
                "code": "11429006",
                "display": "Consultation"
              }
            ]
          }
        ],
        "subject": {
          "reference": "Patient/a64541ad-caf1-4195-8367-a6596cc872d0",
          "display": "Anya Kuznetsova"
        },
        "reason": [
          {
            "value": [
              {
                "concept": {
                  "text": "episodes of sudden, intense pain in her hands and feet"
                }
              }
            ]
          }
        ]
      },
      "request": {
        "method": "POST",
        "url": "Encounter"
      }
    },
    {
      "fullUrl": "urn:uuid:b718698e-8a9e-44e1-a151-8f1803f36931",
      "resource": {
        "resourceType": "Observation",
        "id": "b718698e-8a9e-44e1-a151-8f1803f36931",
        "status": "final",
        "category": [
          {
            "coding": [
              {
                "system": "http://terminology.hl7.org/CodeSystem/observation-category",
                "code": "laboratory",
                "display": "Laboratory"
              }
            ],
            "text": "Laboratory"
          }
        ],
        "code": {
          "coding": [
            {
              "system": "http://loinc.org",
              "code": "unknown",
              "display": "lyso-GL-3 levels"
            }
          ],
          "text": "lyso-GL-3 levels"
        },
        "subject": {
          "reference": "Patient/a64541ad-caf1-4195-8367-a6596cc872d0"
        },
        "encounter": {
          "reference": "Encounter/7b5a0d99-f9da-431a-86cd-966a53f39fa4"
        },
        "effectiveDateTime": "2025-10-16",
        "interpretation": [
          {
            "coding": [
              {
                "system": "http://terminology.hl7.org/CodeSystem/v3-ObservationInterpretation",
                "code": "H",
                "display": "High"
              }
            ]
          }
        ]
      },
      "request": {
        "method": "POST",
        "url": "Observation"
      }
    },
    {
      "fullUrl": "urn:uuid:ab6e7224-9524-466b-98a1-ff77e5b4c0cc",
      "resource": {
        "resourceType": "Observation",
        "id": "ab6e7224-9524-466b-98a1-ff77e5b4c0cc",
        "status": "final",
        "category": [
          {
            "coding": [
              {
                "system": "http://terminology.hl7.org/CodeSystem/observation-category",
                "code": "exam",
                "display": "Exam"
              }
            ],
            "text": "Exam"
          }
        ],
        "code": {
          "coding": [
            {
              "system": "http://snomed.info/sct",
              "code": "248423008",
              "display": "Deprivation hands and feet"
            }
          ],
          "text": "pain in hands and feet"
        },
        "subject": {
          "reference": "Patient/a64541ad-caf1-4195-8367-a6596cc872d0"
        },
        "encounter": {
          "reference": "Encounter/7b5a0d99-f9da-431a-86cd-966a53f39fa4"
        },
        "effectivePeriod": {
          "start": "2025-10-16"
        },
        "valueBoolean": true,
        "interpretation": [
          {
            "coding": [
              {
                "system": "http://terminology.hl7.org/CodeSystem/v3-ObservationInterpretation",
                "code": "A",
                "display": "Abnormal"
              }
            ],
            "text": "Abnormal"
          }
        ],
        "note": [
          {
            "text": "Definition: https://snomed.info/id/248423008"
          }
        ]
      },
      "request": {
        "method": "POST",
        "url": "Observation"
      }
    },
    {
      "fullUrl": "urn:uuid:f4f5b94a-da9a-40ef-a410-7fc6986713a0",
      "resource": {
        "resourceType": "Observation",
        "id": "f4f5b94a-da9a-40ef-a410-7fc6986713a0",
        "status": "final",
        "category": [
          {
            "coding": [
              {
                "system": "http://terminology.hl7.org/CodeSystem/observation-category",
                "code": "exam",
                "display": "Exam"
              }
            ],
            "text": "Exam"
          }
        ],
        "code": {
          "coding": [
            {
              "system": "http://snomed.info/sct",
              "code": "84229001",
              "display": "Fatigue"
            }
          ],
          "text": "fatigue"
        },
        "subject": {
          "reference": "Patient/a64541ad-caf1-4195-8367-a6596cc872d0"
        },
        "encounter": {
          "reference": "Encounter/7b5a0d99-f9da-431a-86cd-966a53f39fa4"
        },
        "effectivePeriod": {
          "start": "2025-10-16"
        },
        "valueBoolean": true,
        "note": [
          {
            "text": "Definition: https://snomed.info/id/84229001"
          }
        ]
      },
      "request": {
        "method": "POST",
        "url": "Observation"
      }
    },
    {
      "fullUrl": "urn:uuid:e95f0073-1d27-4a26-956c-f145c569b609",
      "resource": {
        "resourceType": "Observation",
        "id": "e95f0073-1d27-4a26-956c-f145c569b609",
        "status": "final",
        "category": [
          {
            "coding": [
              {
                "system": "http://terminology.hl7.org/CodeSystem/observation-category",
                "code": "exam",
                "display": "Exam"
              }
            ],
            "text": "Exam"
          }
        ],
        "code": {
          "coding": [
            {
              "system": "http://snomed.info/sct",
              "code": "404640003",
              "display": "Dizziness"
            }
          ],
          "text": "mild dizziness"
        },
        "subject": {
          "reference": "Patient/a64541ad-caf1-4195-8367-a6596cc872d0"
        },
        "encounter": {
          "reference": "Encounter/7b5a0d99-f9da-431a-86cd-966a53f39fa4"
        },
        "effectivePeriod": {
          "start": "2025-10-16"
        },
        "valueBoolean": true,
        "note": [
          {
            "text": "Definition: https://snomed.info/id/404640003"
          }
        ]
      },
      "request": {
        "method": "POST",
        "url": "Observation"
      }
    },
    {
      "fullUrl": "urn:uuid:41809e9c-c414-4809-aab9-7ebdf9153b0d",
      "resource": {
        "resourceType": "List",
        "id": "41809e9c-c414-4809-aab9-7ebdf9153b0d",
        "contained": [
          {
            "resourceType": "FamilyMemberHistory",
            "id": "fmh-1",
            "status": "completed",
            "patient": {
              "reference": "Patient/a64541ad-caf1-4195-8367-a6596cc872d0"
            },
            "relationship": {
              "coding": [
                {
                  "system": "http://snomed.info/sct",
                  "code": "394857004",
                  "display": "Maternal grandfather"
                }
              ]
            },
            "condition": [
              {
                "code": {
                  "coding": [
                    {
                      "system": "http://snomed.info/sct",
                      "code": "90096001",
                      "display": "Stroke volume"
                    }
                  ]
                },
                "outcome": {
                  "coding": [
                    {
                      "system": "http://snomed.info/sct",
                      "code": "876883006",
                      "display": "Died during operation"
                    }
                  ]
                }
              }
            ]
          }
        ],
        "status": "current",
        "mode": "snapshot",
        "code": {
          "coding": [
            {
              "system": "http://loinc.org",
              "code": "8670-2",
              "display": "History of family member diseases"
            }
          ]
        },
        "subject": [
          {
            "reference": "Patient/a64541ad-caf1-4195-8367-a6596cc872d0"
          }
        ],
        "entry": [
          {
            "item": {
              "reference": "#fmh-1"
            }
          }
        ]
      },
      "request": {
        "method": "POST",
        "url": "FamilyMemberHistory"
      }
    }
  ]
}