{
  "resourceType": "Bundle",
  "type": "transaction",
  "entry": [
    {
      "fullUrl": "urn:uuid:f3714651-b293-408e-82d9-6acdf4231ddc",
      "resource": {
        "resourceType": "Patient",
        "id": "f3714651-b293-408e-82d9-6acdf4231ddc",
        "name": [
          {
            "family": "Petrov",
            "given": [
              "Nikolai"
            ]
          }
        ],
        "gender": "male",
        "address": [
          {}
        ]
      },
      "request": {
        "method": "POST",
        "url": "Patient"
      }
    },
    {
      "fullUrl": "urn:uuid:42743514-f040-482c-93ee-baf7c2302152",
      "resource": {
        "resourceType": "Encounter",
        "id": "42743514-f040-482c-93ee-baf7c2302152",
        "identifier": [
          {
            "use": "temp",
            "value": "Encounter_Nikolai Petrov_20251017182644"
          }
        ],
        "status": "completed",
        "priority": {
          "coding": [
            {
              "system": "http://snomed.info/sct",
              "code": "17621005",
              "display": "Normal"
            }
          ]
        },
        "type": [
          {
            "coding": [
              {
                "system": "http://snomed.info/sct",
                "code": "11429006",
                "display": "Consultation"
              }
            ]
          }
        ],
        "subject": {
          "reference": "Patient/f3714651-b293-408e-82d9-6acdf4231ddc",
          "display": "Nikolai Petrov"
        },
        "reason": [
          {
            "value": [
              {
                "concept": {
                  "text": "episodes of severe burning pain in his hands and feet"
                }
              }
            ]
          }
        ]
      },
      "request": {
        "method": "POST",
        "url": "Encounter"
      }
    },
    {
      "fullUrl": "urn:uuid:5c08d8db-8565-46c5-bb85-dd53e1ae685f",
      "resource": {
        "resourceType": "Observation",
        "id": "5c08d8db-8565-46c5-bb85-dd53e1ae685f",
        "status": "final",
        "category": [
          {
            "coding": [
              {
                "system": "http://terminology.hl7.org/CodeSystem/observation-category",
                "code": "laboratory",
                "display": "Laboratory"
              }
            ],
            "text": "Laboratory"
          }
        ],
        "code": {
          "coding": [
            {
              "system": "http://loinc.org",
              "code": "unknown",
              "display": "Urinary Albumin Excretion"
            }
          ],
          "text": "Urinary Albumin Excretion"
        },
        "subject": {
          "reference": "Patient/f3714651-b293-408e-82d9-6acdf4231ddc"
        },
        "encounter": {
          "reference": "Encounter/42743514-f040-482c-93ee-baf7c2302152"
        },
        "effectiveDateTime": "2025-10-16",
        "interpretation": [
          {
            "coding": [
              {
                "system": "http://terminology.hl7.org/CodeSystem/v3-ObservationInterpretation",
                "code": "H",
                "display": "High"
              }
            ]
          }
        ]
      },
      "request": {
        "method": "POST",
        "url": "Observation"
      }
    },
    {
      "fullUrl": "urn:uuid:b7d18540-54d4-438e-b6df-ea295c2f01f9",
      "resource": {
        "resourceType": "Observation",
        "id": "b7d18540-54d4-438e-b6df-ea295c2f01f9",
        "status": "final",
        "category": [
          {
            "coding": [
              {
                "system": "http://terminology.hl7.org/CodeSystem/observation-category",
                "code": "laboratory",
                "display": "Laboratory"
              }
            ],
            "text": "Laboratory"
          }
        ],
        "code": {
          "coding": [
            {
              "system": "http://loinc.org",
              "code": "unknown",
              "display": "Urinary Protein Excretion"
            }
          ],
          "text": "Urinary Protein Excretion"
        },
        "subject": {
          "reference": "Patient/f3714651-b293-408e-82d9-6acdf4231ddc"
        },
        "encounter": {
          "reference": "Encounter/42743514-f040-482c-93ee-baf7c2302152"
        },
        "effectiveDateTime": "2025-10-16",
        "interpretation": [
          {
            "coding": [
              {
                "system": "http://terminology.hl7.org/CodeSystem/v3-ObservationInterpretation",
                "code": "H",
                "display": "High"
              }
            ]
          }
        ]
      },
      "request": {
        "method": "POST",
        "url": "Observation"
      }
    },
    {
      "fullUrl": "urn:uuid:59ebe224-b99d-471a-b742-b9df5f5e42bd",
      "resource": {
        "resourceType": "Observation",
        "id": "59ebe224-b99d-471a-b742-b9df5f5e42bd",
        "status": "final",
        "category": [
          {
            "coding": [
              {
                "system": "http://terminology.hl7.org/CodeSystem/observation-category",
                "code": "exam",
                "display": "Exam"
              }
            ],
            "text": "Exam"
          }
        ],
        "code": {
          "coding": [
            {
              "system": "http://snomed.info/sct",
              "code": "36349006",
              "display": "Burning pain"
            }
          ],
          "text": "Burning pain"
        },
        "subject": {
          "reference": "Patient/f3714651-b293-408e-82d9-6acdf4231ddc"
        },
        "encounter": {
          "reference": "Encounter/42743514-f040-482c-93ee-baf7c2302152"
        },
        "effectivePeriod": {
          "start": "2025-10-16"
        },
        "valueBoolean": true,
        "note": [
          {
            "text": "Definition: https://snomed.info/id/36349006"
          }
        ]
      },
      "request": {
        "method": "POST",
        "url": "Observation"
      }
    },
    {
      "fullUrl": "urn:uuid:a5707385-c29e-472d-97f0-ee493da6263b",
      "resource": {
        "resourceType": "Observation",
        "id": "a5707385-c29e-472d-97f0-ee493da6263b",
        "status": "final",
        "category": [
          {
            "coding": [
              {
                "system": "http://terminology.hl7.org/CodeSystem/observation-category",
                "code": "exam",
                "display": "Exam"
              }
            ],
            "text": "Exam"
          }
        ],
        "code": {
          "coding": [
            {
              "system": "http://snomed.info/sct",
              "code": "15188001",
              "display": "Hearing loss"
            }
          ],
          "text": "Hearing loss"
        },
        "subject": {
          "reference": "Patient/f3714651-b293-408e-82d9-6acdf4231ddc"
        },
        "encounter": {
          "reference": "Encounter/42743514-f040-482c-93ee-baf7c2302152"
        },
        "effectivePeriod": {
          "start": "2025-10-16"
        },
        "valueBoolean": true,
        "note": [
          {
            "text": "Definition: https://snomed.info/id/15188001"
          }
        ]
      },
      "request": {
        "method": "POST",
        "url": "Observation"
      }
    },
    {
      "fullUrl": "urn:uuid:7c212c2e-a7f2-49fc-a1f6-169cbfcf9b5d",
      "resource": {
        "resourceType": "Observation",
        "id": "7c212c2e-a7f2-49fc-a1f6-169cbfcf9b5d",
        "status": "final",
        "category": [
          {
            "coding": [
              {
                "system": "http://terminology.hl7.org/CodeSystem/observation-category",
                "code": "exam",
                "display": "Exam"
              }
            ],
            "text": "Exam"
          }
        ],
        "code": {
          "coding": [
            {
              "system": "http://snomed.info/sct",
              "code": "246957002",
              "display": "Corneal stromal opacities"
            }
          ],
          "text": "Corneal opacities"
        },
        "subject": {
          "reference": "Patient/f3714651-b293-408e-82d9-6acdf4231ddc"
        },
        "encounter": {
          "reference": "Encounter/42743514-f040-482c-93ee-baf7c2302152"
        },
        "effectivePeriod": {
          "start": "2025-10-16"
        },
        "valueBoolean": true,
        "note": [
          {
            "text": "Definition: https://snomed.info/id/246957002"
          }
        ]
      },
      "request": {
        "method": "POST",
        "url": "Observation"
      }
    },
    {
      "fullUrl": "urn:uuid:18573230-ca85-4634-bfc6-92ec154c0ce3",
      "resource": {
        "resourceType": "List",
        "id": "18573230-ca85-4634-bfc6-92ec154c0ce3",
        "contained": [
          {
            "resourceType": "FamilyMemberHistory",
            "id": "fmh-1",
            "status": "completed",
            "patient": {
              "reference": "Patient/f3714651-b293-408e-82d9-6acdf4231ddc"
            },
            "relationship": {
              "coding": [
                {
                  "system": "http://snomed.info/sct",
                  "code": "442031000124102",
                  "display": "Maternal uncle"
                }
              ]
            },
            "deceasedBoolean": true,
            "condition": [
              {
                "code": {
                  "coding": [
                    {
                      "system": "http://snomed.info/sct",
                      "code": "733139004",
                      "display": "Acute kidney failure stage 3"
                    }
                  ]
                },
                "outcome": {
                  "coding": [
                    {
                      "system": "http://snomed.info/sct",
                      "code": "876883006",
                      "display": "Died during operation"
                    }
                  ]
                }
              }
            ]
          }
        ],
        "status": "current",
        "mode": "snapshot",
        "code": {
          "coding": [
            {
              "system": "http://loinc.org",
              "code": "8670-2",
              "display": "History of family member diseases"
            }
          ]
        },
        "subject": [
          {
            "reference": "Patient/f3714651-b293-408e-82d9-6acdf4231ddc"
          }
        ],
        "entry": [
          {
            "item": {
              "reference": "#fmh-1"
            }
          }
        ]
      },
      "request": {
        "method": "POST",
        "url": "FamilyMemberHistory"
      }
    }
  ]
}