{
  "resourceType": "Bundle",
  "type": "transaction",
  "entry": [
    {
      "fullUrl": "urn:uuid:3cd2b010-6168-4cd3-8897-5094da4cc036",
      "resource": {
        "resourceType": "Patient",
        "id": "3cd2b010-6168-4cd3-8897-5094da4cc036",
        "name": [
          {
            "family": "Rodriguez",
            "given": [
              "Sofia"
            ]
          }
        ],
        "gender": "female",
        "birthDate": "1993-01-01",
        "address": [
          {}
        ]
      },
      "request": {
        "method": "POST",
        "url": "Patient"
      }
    },
    {
      "fullUrl": "urn:uuid:57b52a0a-9227-4c68-8aca-1a4284251689",
      "resource": {
        "resourceType": "Encounter",
        "id": "57b52a0a-9227-4c68-8aca-1a4284251689",
        "identifier": [
          {
            "use": "temp",
            "value": "Encounter_Sofia Rodriguez_20251020132919"
          }
        ],
        "status": "completed",
        "priority": {
          "coding": [
            {
              "system": "http://snomed.info/sct",
              "code": "17621005",
              "display": "Normal"
            }
          ]
        },
        "type": [
          {
            "coding": [
              {
                "system": "http://snomed.info/sct",
                "code": "11429006",
                "display": "Consultation"
              }
            ]
          }
        ],
        "subject": {
          "reference": "Patient/3cd2b010-6168-4cd3-8897-5094da4cc036",
          "display": "Sofia Rodriguez"
        },
        "reason": [
          {
            "value": [
              {
                "concept": {
                  "text": "intermittent episodes of burning pain in her hands and feet"
                }
              }
            ]
          }
        ]
      },
      "request": {
        "method": "POST",
        "url": "Encounter"
      }
    },
    {
      "fullUrl": "urn:uuid:43de3199-5103-4069-af91-1d30d5ba2896",
      "resource": {
        "resourceType": "Observation",
        "id": "43de3199-5103-4069-af91-1d30d5ba2896",
        "status": "final",
        "category": [
          {
            "coding": [
              {
                "system": "http://terminology.hl7.org/CodeSystem/observation-category",
                "code": "laboratory",
                "display": "Laboratory"
              }
            ],
            "text": "Laboratory"
          }
        ],
        "code": {
          "coding": [
            {
              "system": "http://loinc.org",
              "code": "62811-5",
              "display": "PhenX - urinary creatinine assay for kidney function protocol 141601"
            }
          ],
          "text": "Creatinine"
        },
        "subject": {
          "reference": "Patient/3cd2b010-6168-4cd3-8897-5094da4cc036"
        },
        "encounter": {
          "reference": "Encounter/57b52a0a-9227-4c68-8aca-1a4284251689"
        },
        "effectiveDateTime": "2025-10-16",
        "valueQuantity": {
          "value": 1.1,
          "unit": "mg/dL",
          "system": "http://unitsofmeasure.org",
          "code": "mg/dL"
        },
        "interpretation": [
          {
            "coding": [
              {
                "system": "http://terminology.hl7.org/CodeSystem/v3-ObservationInterpretation",
                "code": "H",
                "display": "High"
              }
            ]
          }
        ],
        "note": [
          {
            "text": "Definition: https://loinc.org/62811-5/"
          }
        ]
      },
      "request": {
        "method": "POST",
        "url": "Observation"
      }
    },
    {
      "fullUrl": "urn:uuid:1724d720-7431-4684-8301-b33b8b9f9e9a",
      "resource": {
        "resourceType": "Observation",
        "id": "1724d720-7431-4684-8301-b33b8b9f9e9a",
        "status": "final",
        "category": [
          {
            "coding": [
              {
                "system": "http://terminology.hl7.org/CodeSystem/observation-category",
                "code": "exam",
                "display": "Exam"
              }
            ],
            "text": "Exam"
          }
        ],
        "code": {
          "coding": [
            {
              "system": "http://snomed.info/sct",
              "code": "36031001",
              "display": "Burning feet"
            }
          ],
          "text": "Burning pain in hands and feet"
        },
        "subject": {
          "reference": "Patient/3cd2b010-6168-4cd3-8897-5094da4cc036"
        },
        "encounter": {
          "reference": "Encounter/57b52a0a-9227-4c68-8aca-1a4284251689"
        },
        "effectivePeriod": {
          "start": "2025-10-16"
        },
        "valueBoolean": true,
        "interpretation": [
          {
            "coding": [
              {
                "system": "http://terminology.hl7.org/CodeSystem/v3-ObservationInterpretation",
                "code": "A",
                "display": "Abnormal"
              }
            ],
            "text": "Abnormal"
          }
        ],
        "note": [
          {
            "text": "Definition: https://snomed.info/id/36031001"
          }
        ]
      },
      "request": {
        "method": "POST",
        "url": "Observation"
      }
    },
    {
      "fullUrl": "urn:uuid:f87b7c0c-ea4b-4a2c-85ce-229015e63ac8",
      "resource": {
        "resourceType": "Observation",
        "id": "f87b7c0c-ea4b-4a2c-85ce-229015e63ac8",
        "status": "final",
        "category": [
          {
            "coding": [
              {
                "system": "http://terminology.hl7.org/CodeSystem/observation-category",
                "code": "exam",
                "display": "Exam"
              }
            ],
            "text": "Exam"
          }
        ],
        "code": {
          "coding": [
            {
              "system": "http://snomed.info/sct",
              "code": "309376005",
              "display": "Gastrointestinal surgeon"
            }
          ],
          "text": "Gastrointestinal disturbances"
        },
        "subject": {
          "reference": "Patient/3cd2b010-6168-4cd3-8897-5094da4cc036"
        },
        "encounter": {
          "reference": "Encounter/57b52a0a-9227-4c68-8aca-1a4284251689"
        },
        "effectivePeriod": {
          "start": "2025-10-16"
        },
        "valueBoolean": true,
        "note": [
          {
            "text": "Definition: https://snomed.info/id/309376005"
          }
        ]
      },
      "request": {
        "method": "POST",
        "url": "Observation"
      }
    },
    {
      "fullUrl": "urn:uuid:b2a990ce-a541-4937-97c6-c657a478ea34",
      "resource": {
        "resourceType": "Observation",
        "id": "b2a990ce-a541-4937-97c6-c657a478ea34",
        "status": "final",
        "category": [
          {
            "coding": [
              {
                "system": "http://terminology.hl7.org/CodeSystem/observation-category",
                "code": "vital-signs",
                "display": "Vital Signs"
              }
            ],
            "text": "Vital Signs"
          }
        ],
        "code": {
          "coding": [
            {
              "system": "http://loinc.org",
              "code": "8310-5",
              "display": "Body temperature"
            }
          ],
          "text": "temperature"
        },
        "subject": {
          "reference": "Patient/3cd2b010-6168-4cd3-8897-5094da4cc036"
        },
        "encounter": {
          "reference": "Encounter/57b52a0a-9227-4c68-8aca-1a4284251689"
        },
        "effectiveDateTime": "2025-10-16",
        "valueQuantity": {
          "value": 36.8,
          "unit": "degrees Celsius",
          "system": "http://unitsofmeasure.org",
          "code": "degrees Celsius"
        },
        "interpretation": [
          {
            "coding": [
              {
                "system": "http://terminology.hl7.org/CodeSystem/v3-ObservationInterpretation",
                "code": "N",
                "display": "Normal"
              }
            ],
            "text": "Normal"
          }
        ]
      },
      "request": {
        "method": "POST",
        "url": "Observation"
      }
    },
    {
      "fullUrl": "urn:uuid:acb4fe6a-2788-4082-b0c9-f0e44fe09761",
      "resource": {
        "resourceType": "Observation",
        "id": "acb4fe6a-2788-4082-b0c9-f0e44fe09761",
        "status": "final",
        "category": [
          {
            "coding": [
              {
                "system": "http://terminology.hl7.org/CodeSystem/observation-category",
                "code": "vital-signs",
                "display": "Vital Signs"
              }
            ],
            "text": "Vital Signs"
          }
        ],
        "code": {
          "coding": [
            {
              "system": "http://loinc.org",
              "code": "8337-8",
              "display": "Bdy weight special circumstances"
            }
          ],
          "text": "weight"
        },
        "subject": {
          "reference": "Patient/3cd2b010-6168-4cd3-8897-5094da4cc036"
        },
        "encounter": {
          "reference": "Encounter/57b52a0a-9227-4c68-8aca-1a4284251689"
        },
        "effectiveDateTime": "2025-10-16",
        "valueQuantity": {
          "value": 58.0,
          "unit": "kg",
          "system": "http://unitsofmeasure.org",
          "code": "kg"
        },
        "interpretation": [
          {
            "coding": [
              {
                "system": "http://terminology.hl7.org/CodeSystem/v3-ObservationInterpretation",
                "code": "N",
                "display": "Normal"
              }
            ],
            "text": "Normal"
          }
        ]
      },
      "request": {
        "method": "POST",
        "url": "Observation"
      }
    },
    {
      "fullUrl": "urn:uuid:41c34139-3483-4a4c-86f9-97f0046b4456",
      "resource": {
        "resourceType": "Observation",
        "id": "41c34139-3483-4a4c-86f9-97f0046b4456",
        "status": "final",
        "category": [
          {
            "coding": [
              {
                "system": "http://terminology.hl7.org/CodeSystem/observation-category",
                "code": "vital-signs",
                "display": "Vital Signs"
              }
            ],
            "text": "Vital Signs"
          }
        ],
        "code": {
          "coding": [
            {
              "system": "http://loinc.org",
              "code": "92998-4",
              "display": "Lower segment"
            }
          ],
          "text": "height"
        },
        "subject": {
          "reference": "Patient/3cd2b010-6168-4cd3-8897-5094da4cc036"
        },
        "encounter": {
          "reference": "Encounter/57b52a0a-9227-4c68-8aca-1a4284251689"
        },
        "effectiveDateTime": "2025-10-16",
        "valueQuantity": {
          "value": 165.0,
          "unit": "cm",
          "system": "http://unitsofmeasure.org",
          "code": "cm"
        },
        "interpretation": [
          {
            "coding": [
              {
                "system": "http://terminology.hl7.org/CodeSystem/v3-ObservationInterpretation",
                "code": "N",
                "display": "Normal"
              }
            ],
            "text": "Normal"
          }
        ]
      },
      "request": {
        "method": "POST",
        "url": "Observation"
      }
    },
    {
      "fullUrl": "urn:uuid:3ad01824-5d6d-4e44-b7ad-a832d1fbc6b3",
      "resource": {
        "resourceType": "Observation",
        "id": "3ad01824-5d6d-4e44-b7ad-a832d1fbc6b3",
        "status": "final",
        "category": [
          {
            "coding": [
              {
                "system": "http://terminology.hl7.org/CodeSystem/observation-category",
                "code": "vital-signs",
                "display": "Vital Signs"
              }
            ],
            "text": "Vital Signs"
          }
        ],
        "code": {
          "coding": [
            {
              "system": "http://loinc.org",
              "code": "97057-4",
              "display": "Body mass index"
            }
          ],
          "text": "body mass index"
        },
        "subject": {
          "reference": "Patient/3cd2b010-6168-4cd3-8897-5094da4cc036"
        },
        "encounter": {
          "reference": "Encounter/57b52a0a-9227-4c68-8aca-1a4284251689"
        },
        "effectiveDateTime": "2025-10-16",
        "interpretation": [
          {
            "coding": [
              {
                "system": "http://terminology.hl7.org/CodeSystem/v3-ObservationInterpretation",
                "code": "N",
                "display": "Normal"
              }
            ],
            "text": "Normal"
          }
        ]
      },
      "request": {
        "method": "POST",
        "url": "Observation"
      }
    },
    {
      "fullUrl": "urn:uuid:3a3e04b1-8317-4ae4-abf8-68ca1b361356",
      "resource": {
        "resourceType": "MedicationStatement",
        "id": "3a3e04b1-8317-4ae4-abf8-68ca1b361356",
        "status": "recorded",
        "medication": {
          "concept": {
            "coding": [
              {
                "system": "http://snomed.info/sct",
                "code": "387207008",
                "display": "Ibuprofen"
              }
            ],
            "text": "Ibuprofen"
          }
        },
        "subject": {
          "reference": "Patient/3cd2b010-6168-4cd3-8897-5094da4cc036"
        },
        "encounter": {
          "reference": "Encounter/57b52a0a-9227-4c68-8aca-1a4284251689"
        },
        "effectiveDateTime": "2025-10-16",
        "informationSource": [
          {
            "reference": "Patient/3cd2b010-6168-4cd3-8897-5094da4cc036"
          }
        ],
        "dosage": [
          {
            "text": "400 milligrams every 6 hours",
            "timing": {
              "repeat": {
                "frequency": 4,
                "period": 1.0,
                "periodUnit": "d"
              }
            }
          }
        ]
      },
      "request": {
        "method": "POST",
        "url": "MedicationStatement"
      }
    },
    {
      "fullUrl": "urn:uuid:80cba146-678b-453c-b3c7-6beae507ad98",
      "resource": {
        "resourceType": "Encounter",
        "id": "80cba146-678b-453c-b3c7-6beae507ad98",
        "identifier": [
          {
            "use": "temp",
            "value": "Encounter_Sofia Rodriguez_20251020132942"
          }
        ],
        "status": "completed",
        "priority": {
          "coding": [
            {
              "system": "http://snomed.info/sct",
              "code": "17621005",
              "display": "Normal"
            }
          ]
        },
        "type": [
          {
            "coding": [
              {
                "system": "http://snomed.info/sct",
                "code": "11429006",
                "display": "Consultation"
              }
            ]
          }
        ],
        "subject": {
          "reference": "Patient/3cd2b010-6168-4cd3-8897-5094da4cc036",
          "display": "Sofia Rodriguez"
        },
        "reason": [
          {
            "value": [
              {
                "concept": {
                  "text": "similar symptoms"
                }
              }
            ]
          }
        ]
      },
      "request": {
        "method": "POST",
        "url": "Encounter"
      }
    },
    {
      "fullUrl": "urn:uuid:a90cd9d3-d11e-4926-a797-336144caa3d2",
      "resource": {
        "resourceType": "Observation",
        "id": "a90cd9d3-d11e-4926-a797-336144caa3d2",
        "status": "final",
        "category": [
          {
            "coding": [
              {
                "system": "http://terminology.hl7.org/CodeSystem/observation-category",
                "code": "exam",
                "display": "Exam"
              }
            ],
            "text": "Exam"
          }
        ],
        "code": {
          "coding": [
            {
              "system": "http://snomed.info/sct",
              "code": "36031001",
              "display": "Burning feet"
            }
          ],
          "text": "Burning pain in hands and feet"
        },
        "subject": {
          "reference": "Patient/3cd2b010-6168-4cd3-8897-5094da4cc036"
        },
        "encounter": {
          "reference": "Encounter/80cba146-678b-453c-b3c7-6beae507ad98"
        },
        "effectivePeriod": {
          "start": "2023-10-16"
        },
        "valueBoolean": true,
        "interpretation": [
          {
            "coding": [
              {
                "system": "http://terminology.hl7.org/CodeSystem/v3-ObservationInterpretation",
                "code": "A",
                "display": "Abnormal"
              }
            ],
            "text": "Abnormal"
          }
        ],
        "note": [
          {
            "text": "Definition: https://snomed.info/id/36031001"
          }
        ]
      },
      "request": {
        "method": "POST",
        "url": "Observation"
      }
    },
    {
      "fullUrl": "urn:uuid:8ccf6a23-7fc9-4702-9279-972cb74933e1",
      "resource": {
        "resourceType": "List",
        "id": "8ccf6a23-7fc9-4702-9279-972cb74933e1",
        "contained": [
          {
            "resourceType": "FamilyMemberHistory",
            "id": "fmh-2",
            "status": "completed",
            "patient": {
              "reference": "Patient/3cd2b010-6168-4cd3-8897-5094da4cc036"
            },
            "relationship": {
              "coding": [
                {
                  "system": "http://snomed.info/sct",
                  "code": "72705000",
                  "display": "Mother"
                }
              ]
            },
            "deceasedBoolean": false,
            "condition": []
          }
        ],
        "status": "current",
        "mode": "snapshot",
        "code": {
          "coding": [
            {
              "system": "http://loinc.org",
              "code": "8670-2",
              "display": "History of family member diseases"
            }
          ]
        },
        "subject": [
          {
            "reference": "Patient/3cd2b010-6168-4cd3-8897-5094da4cc036"
          }
        ],
        "note": [
          {
            "text": "Both parents are alive and otherwise healthy"
          }
        ],
        "entry": [
          {
            "item": {
              "reference": "#fmh-2"
            }
          }
        ]
      },
      "request": {
        "method": "POST",
        "url": "FamilyMemberHistory"
      }
    }
  ]
}