{
  "resourceType": "Bundle",
  "type": "transaction",
  "entry": [
    {
      "fullUrl": "urn:uuid:928e2b92-6f10-4e08-b054-ce1f42d80b3b",
      "resource": {
        "resourceType": "Patient",
        "id": "928e2b92-6f10-4e08-b054-ce1f42d80b3b",
        "name": [
          {
            "family": "Petrov",
            "given": [
              "Nikolai"
            ]
          }
        ],
        "gender": "male",
        "birthDate": "2000-07-12",
        "address": [
          {}
        ]
      },
      "request": {
        "method": "POST",
        "url": "Patient"
      }
    },
    {
      "fullUrl": "urn:uuid:58c1d1ad-fbf5-4961-b76c-ef72c5d9d2b8",
      "resource": {
        "resourceType": "Encounter",
        "id": "58c1d1ad-fbf5-4961-b76c-ef72c5d9d2b8",
        "identifier": [
          {
            "use": "temp",
            "value": "Encounter_Nikolai Petrov_20251022152221"
          }
        ],
        "status": "completed",
        "priority": {
          "coding": [
            {
              "system": "http://snomed.info/sct",
              "code": "17621005",
              "display": "Normal"
            }
          ]
        },
        "type": [
          {
            "coding": [
              {
                "system": "http://snomed.info/sct",
                "code": "11429006",
                "display": "Consultation"
              }
            ]
          }
        ],
        "subject": {
          "reference": "Patient/928e2b92-6f10-4e08-b054-ce1f42d80b3b",
          "display": "Nikolai Petrov"
        },
        "reason": [
          {
            "value": [
              {
                "concept": {
                  "text": "episodes of severe burning pain in his hands and feet"
                }
              }
            ]
          }
        ]
      },
      "request": {
        "method": "POST",
        "url": "Encounter"
      }
    },
    {
      "fullUrl": "urn:uuid:d9c5c23f-1545-4ac4-a861-eba0ef2f08af",
      "resource": {
        "resourceType": "Observation",
        "id": "d9c5c23f-1545-4ac4-a861-eba0ef2f08af",
        "status": "final",
        "category": [
          {
            "coding": [
              {
                "system": "http://terminology.hl7.org/CodeSystem/observation-category",
                "code": "laboratory",
                "display": "Laboratory"
              }
            ],
            "text": "Laboratory"
          }
        ],
        "code": {
          "coding": [
            {
              "system": "http://loinc.org",
              "code": "unknown",
              "display": "Urinary Albumin Excretion"
            }
          ],
          "text": "Urinary Albumin Excretion"
        },
        "subject": {
          "reference": "Patient/928e2b92-6f10-4e08-b054-ce1f42d80b3b"
        },
        "encounter": {
          "reference": "Encounter/58c1d1ad-fbf5-4961-b76c-ef72c5d9d2b8"
        },
        "effectiveDateTime": "2025-10-16",
        "interpretation": [
          {
            "coding": [
              {
                "system": "http://terminology.hl7.org/CodeSystem/v3-ObservationInterpretation",
                "code": "A",
                "display": "Abnormal"
              }
            ]
          }
        ]
      },
      "request": {
        "method": "POST",
        "url": "Observation"
      }
    },
    {
      "fullUrl": "urn:uuid:6bc19892-e9fb-4c8b-9915-32e45e5a956d",
      "resource": {
        "resourceType": "Observation",
        "id": "6bc19892-e9fb-4c8b-9915-32e45e5a956d",
        "status": "final",
        "category": [
          {
            "coding": [
              {
                "system": "http://terminology.hl7.org/CodeSystem/observation-category",
                "code": "laboratory",
                "display": "Laboratory"
              }
            ],
            "text": "Laboratory"
          }
        ],
        "code": {
          "coding": [
            {
              "system": "http://loinc.org",
              "code": "unknown",
              "display": "Urinary Protein Excretion"
            }
          ],
          "text": "Urinary Protein Excretion"
        },
        "subject": {
          "reference": "Patient/928e2b92-6f10-4e08-b054-ce1f42d80b3b"
        },
        "encounter": {
          "reference": "Encounter/58c1d1ad-fbf5-4961-b76c-ef72c5d9d2b8"
        },
        "effectiveDateTime": "2025-10-16",
        "interpretation": [
          {
            "coding": [
              {
                "system": "http://terminology.hl7.org/CodeSystem/v3-ObservationInterpretation",
                "code": "A",
                "display": "Abnormal"
              }
            ]
          }
        ]
      },
      "request": {
        "method": "POST",
        "url": "Observation"
      }
    },
    {
      "fullUrl": "urn:uuid:77ad176d-1677-470d-a8a0-b56a0468ce14",
      "resource": {
        "resourceType": "Observation",
        "id": "77ad176d-1677-470d-a8a0-b56a0468ce14",
        "status": "final",
        "category": [
          {
            "coding": [
              {
                "system": "http://terminology.hl7.org/CodeSystem/observation-category",
                "code": "exam",
                "display": "Exam"
              }
            ],
            "text": "Exam"
          }
        ],
        "code": {
          "coding": [
            {
              "system": "http://snomed.info/sct",
              "code": "36349006",
              "display": "Burning pain"
            }
          ],
          "text": "Burning pain"
        },
        "subject": {
          "reference": "Patient/928e2b92-6f10-4e08-b054-ce1f42d80b3b"
        },
        "encounter": {
          "reference": "Encounter/58c1d1ad-fbf5-4961-b76c-ef72c5d9d2b8"
        },
        "effectivePeriod": {
          "start": "2025-10-16"
        },
        "valueBoolean": true,
        "note": [
          {
            "text": "Definition: https://snomed.info/id/36349006"
          }
        ]
      },
      "request": {
        "method": "POST",
        "url": "Observation"
      }
    },
    {
      "fullUrl": "urn:uuid:1c59a6c1-e929-43ae-91be-43eaa2496589",
      "resource": {
        "resourceType": "Observation",
        "id": "1c59a6c1-e929-43ae-91be-43eaa2496589",
        "status": "final",
        "category": [
          {
            "coding": [
              {
                "system": "http://terminology.hl7.org/CodeSystem/observation-category",
                "code": "exam",
                "display": "Exam"
              }
            ],
            "text": "Exam"
          }
        ],
        "code": {
          "coding": [
            {
              "system": "http://snomed.info/sct",
              "code": "15188001",
              "display": "Hearing loss"
            }
          ],
          "text": "Hearing loss"
        },
        "subject": {
          "reference": "Patient/928e2b92-6f10-4e08-b054-ce1f42d80b3b"
        },
        "encounter": {
          "reference": "Encounter/58c1d1ad-fbf5-4961-b76c-ef72c5d9d2b8"
        },
        "effectivePeriod": {
          "start": "2025-10-16"
        },
        "valueBoolean": true,
        "note": [
          {
            "text": "Definition: https://snomed.info/id/15188001"
          }
        ]
      },
      "request": {
        "method": "POST",
        "url": "Observation"
      }
    },
    {
      "fullUrl": "urn:uuid:4bdfd764-836e-4fa2-9fda-ebfdd4bb0d65",
      "resource": {
        "resourceType": "Observation",
        "id": "4bdfd764-836e-4fa2-9fda-ebfdd4bb0d65",
        "status": "final",
        "category": [
          {
            "coding": [
              {
                "system": "http://terminology.hl7.org/CodeSystem/observation-category",
                "code": "exam",
                "display": "Exam"
              }
            ],
            "text": "Exam"
          }
        ],
        "code": {
          "coding": [
            {
              "system": "http://snomed.info/sct",
              "code": "246957002",
              "display": "Corneal stromal opacities"
            }
          ],
          "text": "Corneal opacities"
        },
        "subject": {
          "reference": "Patient/928e2b92-6f10-4e08-b054-ce1f42d80b3b"
        },
        "encounter": {
          "reference": "Encounter/58c1d1ad-fbf5-4961-b76c-ef72c5d9d2b8"
        },
        "effectivePeriod": {
          "start": "2025-10-16"
        },
        "valueBoolean": true,
        "note": [
          {
            "text": "Definition: https://snomed.info/id/246957002"
          }
        ]
      },
      "request": {
        "method": "POST",
        "url": "Observation"
      }
    },
    {
      "fullUrl": "urn:uuid:efb60e71-206b-4678-8fa5-6107532189f1",
      "resource": {
        "resourceType": "List",
        "id": "efb60e71-206b-4678-8fa5-6107532189f1",
        "contained": [
          {
            "resourceType": "FamilyMemberHistory",
            "id": "fmh-1",
            "status": "completed",
            "patient": {
              "reference": "Patient/928e2b92-6f10-4e08-b054-ce1f42d80b3b"
            },
            "relationship": {
              "coding": [
                {
                  "system": "http://snomed.info/sct",
                  "code": "442031000124102",
                  "display": "Maternal uncle"
                }
              ]
            },
            "deceasedBoolean": true,
            "condition": [
              {
                "code": {
                  "coding": [
                    {
                      "system": "http://snomed.info/sct",
                      "code": "733139004",
                      "display": "Acute kidney failure stage 3"
                    }
                  ]
                },
                "outcome": {
                  "coding": [
                    {
                      "system": "http://snomed.info/sct",
                      "code": "876883006",
                      "display": "Died during operation"
                    }
                  ]
                }
              }
            ]
          }
        ],
        "status": "current",
        "mode": "snapshot",
        "code": {
          "coding": [
            {
              "system": "http://loinc.org",
              "code": "8670-2",
              "display": "History of family member diseases"
            }
          ]
        },
        "subject": [
          {
            "reference": "Patient/928e2b92-6f10-4e08-b054-ce1f42d80b3b"
          }
        ],
        "entry": [
          {
            "item": {
              "reference": "#fmh-1"
            }
          }
        ]
      },
      "request": {
        "method": "POST",
        "url": "FamilyMemberHistory"
      }
    }
  ]
}