{
  "resourceType": "Bundle",
  "type": "transaction",
  "entry": [
    {
      "fullUrl": "urn:uuid:00ea3ea3-6ee3-4616-b02f-67e3989bcc1b",
      "resource": {
        "resourceType": "Patient",
        "id": "00ea3ea3-6ee3-4616-b02f-67e3989bcc1b",
        "name": [
          {
            "family": "Kuznetsova",
            "given": [
              "Anya"
            ]
          }
        ],
        "gender": "female",
        "birthDate": "1996-07-04",
        "address": [
          {}
        ]
      },
      "request": {
        "method": "POST",
        "url": "Patient"
      }
    },
    {
      "fullUrl": "urn:uuid:771c1d93-e46c-4faf-ae70-320425c881c1",
      "resource": {
        "resourceType": "Encounter",
        "id": "771c1d93-e46c-4faf-ae70-320425c881c1",
        "identifier": [
          {
            "use": "temp",
            "value": "Encounter_Anya Kuznetsova_20251020131731"
          }
        ],
        "status": "completed",
        "priority": {
          "coding": [
            {
              "system": "http://snomed.info/sct",
              "code": "17621005",
              "display": "Normal"
            }
          ]
        },
        "type": [
          {
            "coding": [
              {
                "system": "http://snomed.info/sct",
                "code": "11429006",
                "display": "Consultation"
              }
            ]
          }
        ],
        "subject": {
          "reference": "Patient/00ea3ea3-6ee3-4616-b02f-67e3989bcc1b",
          "display": "Anya Kuznetsova"
        },
        "reason": [
          {
            "value": [
              {
                "concept": {
                  "text": "episodes of sudden, intense pain in her hands and feet"
                }
              }
            ]
          }
        ]
      },
      "request": {
        "method": "POST",
        "url": "Encounter"
      }
    },
    {
      "fullUrl": "urn:uuid:c5752908-1ab3-42a9-b131-55e538824a6c",
      "resource": {
        "resourceType": "Observation",
        "id": "c5752908-1ab3-42a9-b131-55e538824a6c",
        "status": "final",
        "category": [
          {
            "coding": [
              {
                "system": "http://terminology.hl7.org/CodeSystem/observation-category",
                "code": "laboratory",
                "display": "Laboratory"
              }
            ],
            "text": "Laboratory"
          }
        ],
        "code": {
          "coding": [
            {
              "system": "http://loinc.org",
              "code": "unknown",
              "display": "Lyso-GL-3"
            }
          ],
          "text": "Lyso-GL-3"
        },
        "subject": {
          "reference": "Patient/00ea3ea3-6ee3-4616-b02f-67e3989bcc1b"
        },
        "encounter": {
          "reference": "Encounter/771c1d93-e46c-4faf-ae70-320425c881c1"
        },
        "effectiveDateTime": "2025-10-16",
        "interpretation": [
          {
            "coding": [
              {
                "system": "http://terminology.hl7.org/CodeSystem/v3-ObservationInterpretation",
                "code": "H",
                "display": "High"
              }
            ]
          }
        ]
      },
      "request": {
        "method": "POST",
        "url": "Observation"
      }
    },
    {
      "fullUrl": "urn:uuid:44752d4d-e569-497a-b967-b47f418d9190",
      "resource": {
        "resourceType": "Observation",
        "id": "44752d4d-e569-497a-b967-b47f418d9190",
        "status": "final",
        "category": [
          {
            "coding": [
              {
                "system": "http://terminology.hl7.org/CodeSystem/observation-category",
                "code": "exam",
                "display": "Exam"
              }
            ],
            "text": "Exam"
          }
        ],
        "code": {
          "coding": [
            {
              "system": "http://snomed.info/sct",
              "code": "248423008",
              "display": "Deprivation hands and feet"
            }
          ],
          "text": "Pain in hands and feet"
        },
        "subject": {
          "reference": "Patient/00ea3ea3-6ee3-4616-b02f-67e3989bcc1b"
        },
        "encounter": {
          "reference": "Encounter/771c1d93-e46c-4faf-ae70-320425c881c1"
        },
        "effectivePeriod": {
          "start": "2025-10-16"
        },
        "valueBoolean": true,
        "interpretation": [
          {
            "coding": [
              {
                "system": "http://terminology.hl7.org/CodeSystem/v3-ObservationInterpretation",
                "code": "A",
                "display": "Abnormal"
              }
            ],
            "text": "Abnormal"
          }
        ],
        "note": [
          {
            "text": "Definition: https://snomed.info/id/248423008"
          }
        ]
      },
      "request": {
        "method": "POST",
        "url": "Observation"
      }
    },
    {
      "fullUrl": "urn:uuid:6c00b899-e984-4f86-b462-1903e03c68b0",
      "resource": {
        "resourceType": "Observation",
        "id": "6c00b899-e984-4f86-b462-1903e03c68b0",
        "status": "final",
        "category": [
          {
            "coding": [
              {
                "system": "http://terminology.hl7.org/CodeSystem/observation-category",
                "code": "exam",
                "display": "Exam"
              }
            ],
            "text": "Exam"
          }
        ],
        "code": {
          "coding": [
            {
              "system": "http://snomed.info/sct",
              "code": "84229001",
              "display": "Fatigue"
            }
          ],
          "text": "Fatigue"
        },
        "subject": {
          "reference": "Patient/00ea3ea3-6ee3-4616-b02f-67e3989bcc1b"
        },
        "encounter": {
          "reference": "Encounter/771c1d93-e46c-4faf-ae70-320425c881c1"
        },
        "effectivePeriod": {
          "start": "2025-10-16"
        },
        "valueBoolean": true,
        "interpretation": [
          {
            "coding": [
              {
                "system": "http://terminology.hl7.org/CodeSystem/v3-ObservationInterpretation",
                "code": "A",
                "display": "Abnormal"
              }
            ],
            "text": "Abnormal"
          }
        ],
        "note": [
          {
            "text": "Definition: https://snomed.info/id/84229001"
          }
        ]
      },
      "request": {
        "method": "POST",
        "url": "Observation"
      }
    },
    {
      "fullUrl": "urn:uuid:df26dc7b-b822-4006-9663-7b2654886401",
      "resource": {
        "resourceType": "Observation",
        "id": "df26dc7b-b822-4006-9663-7b2654886401",
        "status": "final",
        "category": [
          {
            "coding": [
              {
                "system": "http://terminology.hl7.org/CodeSystem/observation-category",
                "code": "exam",
                "display": "Exam"
              }
            ],
            "text": "Exam"
          }
        ],
        "code": {
          "coding": [
            {
              "system": "http://snomed.info/sct",
              "code": "404640003",
              "display": "Dizziness"
            }
          ],
          "text": "Mild dizziness"
        },
        "subject": {
          "reference": "Patient/00ea3ea3-6ee3-4616-b02f-67e3989bcc1b"
        },
        "encounter": {
          "reference": "Encounter/771c1d93-e46c-4faf-ae70-320425c881c1"
        },
        "effectivePeriod": {
          "start": "2025-10-16"
        },
        "valueBoolean": true,
        "interpretation": [
          {
            "coding": [
              {
                "system": "http://terminology.hl7.org/CodeSystem/v3-ObservationInterpretation",
                "code": "A",
                "display": "Abnormal"
              }
            ],
            "text": "Abnormal"
          }
        ],
        "note": [
          {
            "text": "Definition: https://snomed.info/id/404640003"
          }
        ]
      },
      "request": {
        "method": "POST",
        "url": "Observation"
      }
    },
    {
      "fullUrl": "urn:uuid:cfad41e1-a8f2-4680-a599-e89446c2bfcd",
      "resource": {
        "resourceType": "List",
        "id": "cfad41e1-a8f2-4680-a599-e89446c2bfcd",
        "contained": [
          {
            "resourceType": "FamilyMemberHistory",
            "id": "fmh-1",
            "status": "completed",
            "patient": {
              "reference": "Patient/00ea3ea3-6ee3-4616-b02f-67e3989bcc1b"
            },
            "relationship": {
              "coding": [
                {
                  "system": "http://snomed.info/sct",
                  "code": "394857004",
                  "display": "Maternal grandfather"
                }
              ]
            },
            "deceasedBoolean": false,
            "condition": [
              {
                "code": {
                  "coding": [
                    {
                      "system": "http://snomed.info/sct",
                      "code": "90096001",
                      "display": "Stroke volume"
                    }
                  ]
                }
              }
            ]
          }
        ],
        "status": "current",
        "mode": "snapshot",
        "code": {
          "coding": [
            {
              "system": "http://loinc.org",
              "code": "8670-2",
              "display": "History of family member diseases"
            }
          ]
        },
        "subject": [
          {
            "reference": "Patient/00ea3ea3-6ee3-4616-b02f-67e3989bcc1b"
          }
        ],
        "entry": [
          {
            "item": {
              "reference": "#fmh-1"
            }
          }
        ]
      },
      "request": {
        "method": "POST",
        "url": "FamilyMemberHistory"
      }
    }
  ]
}