{
  "resourceType": "Bundle",
  "type": "transaction",
  "entry": [
    {
      "fullUrl": "urn:uuid:3defb8d6-7c08-47e6-9bf1-5815846e27c7",
      "resource": {
        "resourceType": "Patient",
        "id": "3defb8d6-7c08-47e6-9bf1-5815846e27c7",
        "name": [
          {
            "family": "Kuznetsova",
            "given": [
              "Anya"
            ]
          }
        ],
        "gender": "female",
        "address": [
          {}
        ]
      },
      "request": {
        "method": "POST",
        "url": "Patient"
      }
    },
    {
      "fullUrl": "urn:uuid:3ac53fb6-98e4-42a8-9080-7329f0f3a6b7",
      "resource": {
        "resourceType": "Encounter",
        "id": "3ac53fb6-98e4-42a8-9080-7329f0f3a6b7",
        "identifier": [
          {
            "use": "temp",
            "value": "Encounter_Anya Kuznetsova_20251017182713"
          }
        ],
        "status": "completed",
        "priority": {
          "coding": [
            {
              "system": "http://snomed.info/sct",
              "code": "17621005",
              "display": "Normal"
            }
          ]
        },
        "type": [
          {
            "coding": [
              {
                "system": "http://snomed.info/sct",
                "code": "11429006",
                "display": "Consultation"
              }
            ]
          }
        ],
        "subject": {
          "reference": "Patient/3defb8d6-7c08-47e6-9bf1-5815846e27c7",
          "display": "Anya Kuznetsova"
        },
        "reason": [
          {
            "value": [
              {
                "concept": {
                  "text": "episodes of sudden, intense pain in her hands and feet"
                }
              }
            ]
          }
        ]
      },
      "request": {
        "method": "POST",
        "url": "Encounter"
      }
    },
    {
      "fullUrl": "urn:uuid:73ac8123-08ed-4a82-8690-c2a7ac088f9f",
      "resource": {
        "resourceType": "Observation",
        "id": "73ac8123-08ed-4a82-8690-c2a7ac088f9f",
        "status": "final",
        "category": [
          {
            "coding": [
              {
                "system": "http://terminology.hl7.org/CodeSystem/observation-category",
                "code": "laboratory",
                "display": "Laboratory"
              }
            ],
            "text": "Laboratory"
          }
        ],
        "code": {
          "coding": [
            {
              "system": "http://loinc.org",
              "code": "unknown",
              "display": "Lyso-GL-3"
            }
          ],
          "text": "Lyso-GL-3"
        },
        "subject": {
          "reference": "Patient/3defb8d6-7c08-47e6-9bf1-5815846e27c7"
        },
        "encounter": {
          "reference": "Encounter/3ac53fb6-98e4-42a8-9080-7329f0f3a6b7"
        },
        "effectiveDateTime": "2025-10-16",
        "interpretation": [
          {
            "coding": [
              {
                "system": "http://terminology.hl7.org/CodeSystem/v3-ObservationInterpretation",
                "code": "H",
                "display": "High"
              }
            ]
          }
        ]
      },
      "request": {
        "method": "POST",
        "url": "Observation"
      }
    },
    {
      "fullUrl": "urn:uuid:cf3ffbd8-180a-45a1-872f-95090992002a",
      "resource": {
        "resourceType": "Observation",
        "id": "cf3ffbd8-180a-45a1-872f-95090992002a",
        "status": "final",
        "category": [
          {
            "coding": [
              {
                "system": "http://terminology.hl7.org/CodeSystem/observation-category",
                "code": "exam",
                "display": "Exam"
              }
            ],
            "text": "Exam"
          }
        ],
        "code": {
          "coding": [
            {
              "system": "http://snomed.info/sct",
              "code": "248423008",
              "display": "Deprivation hands and feet"
            }
          ],
          "text": "Pain in hands and feet"
        },
        "subject": {
          "reference": "Patient/3defb8d6-7c08-47e6-9bf1-5815846e27c7"
        },
        "encounter": {
          "reference": "Encounter/3ac53fb6-98e4-42a8-9080-7329f0f3a6b7"
        },
        "effectivePeriod": {
          "start": "2025-10-16"
        },
        "valueBoolean": true,
        "interpretation": [
          {
            "coding": [
              {
                "system": "http://terminology.hl7.org/CodeSystem/v3-ObservationInterpretation",
                "code": "A",
                "display": "Abnormal"
              }
            ],
            "text": "Abnormal"
          }
        ],
        "note": [
          {
            "text": "Definition: https://snomed.info/id/248423008"
          }
        ]
      },
      "request": {
        "method": "POST",
        "url": "Observation"
      }
    },
    {
      "fullUrl": "urn:uuid:808ef8c4-8828-462e-9efd-ddc4b3ead488",
      "resource": {
        "resourceType": "Observation",
        "id": "808ef8c4-8828-462e-9efd-ddc4b3ead488",
        "status": "final",
        "category": [
          {
            "coding": [
              {
                "system": "http://terminology.hl7.org/CodeSystem/observation-category",
                "code": "exam",
                "display": "Exam"
              }
            ],
            "text": "Exam"
          }
        ],
        "code": {
          "coding": [
            {
              "system": "http://snomed.info/sct",
              "code": "84229001",
              "display": "Fatigue"
            }
          ],
          "text": "Fatigue"
        },
        "subject": {
          "reference": "Patient/3defb8d6-7c08-47e6-9bf1-5815846e27c7"
        },
        "encounter": {
          "reference": "Encounter/3ac53fb6-98e4-42a8-9080-7329f0f3a6b7"
        },
        "effectivePeriod": {
          "start": "2025-10-16"
        },
        "valueBoolean": true,
        "note": [
          {
            "text": "Definition: https://snomed.info/id/84229001"
          }
        ]
      },
      "request": {
        "method": "POST",
        "url": "Observation"
      }
    },
    {
      "fullUrl": "urn:uuid:0ab2827a-c40c-42ab-baaa-0e85214dccd0",
      "resource": {
        "resourceType": "Observation",
        "id": "0ab2827a-c40c-42ab-baaa-0e85214dccd0",
        "status": "final",
        "category": [
          {
            "coding": [
              {
                "system": "http://terminology.hl7.org/CodeSystem/observation-category",
                "code": "exam",
                "display": "Exam"
              }
            ],
            "text": "Exam"
          }
        ],
        "code": {
          "coding": [
            {
              "system": "http://snomed.info/sct",
              "code": "404640003",
              "display": "Dizziness"
            }
          ],
          "text": "Mild dizziness"
        },
        "subject": {
          "reference": "Patient/3defb8d6-7c08-47e6-9bf1-5815846e27c7"
        },
        "encounter": {
          "reference": "Encounter/3ac53fb6-98e4-42a8-9080-7329f0f3a6b7"
        },
        "effectivePeriod": {
          "start": "2025-10-16"
        },
        "valueBoolean": true,
        "note": [
          {
            "text": "Definition: https://snomed.info/id/404640003"
          }
        ]
      },
      "request": {
        "method": "POST",
        "url": "Observation"
      }
    },
    {
      "fullUrl": "urn:uuid:e74001a0-691a-4963-b46c-cc0b3d778e1d",
      "resource": {
        "resourceType": "Observation",
        "id": "e74001a0-691a-4963-b46c-cc0b3d778e1d",
        "status": "final",
        "category": [
          {
            "coding": [
              {
                "system": "http://terminology.hl7.org/CodeSystem/observation-category",
                "code": "exam",
                "display": "Exam"
              }
            ],
            "text": "Exam"
          }
        ],
        "code": {
          "coding": [
            {
              "system": "http://snomed.info/sct",
              "code": "442672001",
              "display": "Swelling"
            }
          ],
          "text": "Mild swelling"
        },
        "subject": {
          "reference": "Patient/3defb8d6-7c08-47e6-9bf1-5815846e27c7"
        },
        "encounter": {
          "reference": "Encounter/3ac53fb6-98e4-42a8-9080-7329f0f3a6b7"
        },
        "effectivePeriod": {
          "start": "2025-10-16"
        },
        "valueBoolean": true,
        "note": [
          {
            "text": "Definition: https://snomed.info/id/442672001"
          }
        ]
      },
      "request": {
        "method": "POST",
        "url": "Observation"
      }
    },
    {
      "fullUrl": "urn:uuid:e542ce96-3eca-4a3b-aa9f-b9303ad917bf",
      "resource": {
        "resourceType": "List",
        "id": "e542ce96-3eca-4a3b-aa9f-b9303ad917bf",
        "contained": [
          {
            "resourceType": "FamilyMemberHistory",
            "id": "fmh-1",
            "status": "completed",
            "patient": {
              "reference": "Patient/3defb8d6-7c08-47e6-9bf1-5815846e27c7"
            },
            "relationship": {
              "coding": [
                {
                  "system": "http://snomed.info/sct",
                  "code": "394857004",
                  "display": "Maternal grandfather"
                }
              ]
            },
            "condition": [
              {
                "code": {
                  "coding": [
                    {
                      "system": "http://snomed.info/sct",
                      "code": "90096001",
                      "display": "Stroke volume"
                    }
                  ]
                },
                "outcome": {
                  "coding": [
                    {
                      "system": "http://snomed.info/sct",
                      "code": "876883006",
                      "display": "Died during operation"
                    }
                  ]
                }
              }
            ]
          }
        ],
        "status": "current",
        "mode": "snapshot",
        "code": {
          "coding": [
            {
              "system": "http://loinc.org",
              "code": "8670-2",
              "display": "History of family member diseases"
            }
          ]
        },
        "subject": [
          {
            "reference": "Patient/3defb8d6-7c08-47e6-9bf1-5815846e27c7"
          }
        ],
        "entry": [
          {
            "item": {
              "reference": "#fmh-1"
            }
          }
        ]
      },
      "request": {
        "method": "POST",
        "url": "FamilyMemberHistory"
      }
    }
  ]
}