{
  "resourceType": "Bundle",
  "type": "transaction",
  "entry": [
    {
      "fullUrl": "urn:uuid:cff51634-6a00-4d0c-ade8-f60ebba0e5c1",
      "resource": {
        "resourceType": "Patient",
        "id": "cff51634-6a00-4d0c-ade8-f60ebba0e5c1",
        "name": [
          {
            "family": "Wilson",
            "given": [
              "Emily"
            ]
          }
        ],
        "gender": "female",
        "birthDate": "1990-07-04",
        "address": [
          {}
        ]
      },
      "request": {
        "method": "POST",
        "url": "Patient"
      }
    },
    {
      "fullUrl": "urn:uuid:0d5addae-6fef-4c6d-9b4b-aa101d71f2f1",
      "resource": {
        "resourceType": "Encounter",
        "id": "0d5addae-6fef-4c6d-9b4b-aa101d71f2f1",
        "identifier": [
          {
            "use": "temp",
            "value": "Encounter_Emily Wilson_20251021093758"
          }
        ],
        "status": "completed",
        "priority": {
          "coding": [
            {
              "system": "http://snomed.info/sct",
              "code": "17621005",
              "display": "Normal"
            }
          ]
        },
        "type": [
          {
            "coding": [
              {
                "system": "http://snomed.info/sct",
                "code": "11429006",
                "display": "Consultation"
              }
            ]
          }
        ],
        "subject": {
          "reference": "Patient/cff51634-6a00-4d0c-ade8-f60ebba0e5c1",
          "display": "Emily Wilson"
        },
        "reason": [
          {
            "value": [
              {
                "concept": {
                  "text": "complaints of intermittent burning sensations in her hands and feet"
                }
              }
            ]
          }
        ]
      },
      "request": {
        "method": "POST",
        "url": "Encounter"
      }
    },
    {
      "fullUrl": "urn:uuid:cc387f9a-ad2c-4c7e-8cd0-6dd750c269e0",
      "resource": {
        "resourceType": "Observation",
        "id": "cc387f9a-ad2c-4c7e-8cd0-6dd750c269e0",
        "status": "final",
        "category": [
          {
            "coding": [
              {
                "system": "http://terminology.hl7.org/CodeSystem/observation-category",
                "code": "laboratory",
                "display": "Laboratory"
              }
            ],
            "text": "Laboratory"
          }
        ],
        "code": {
          "coding": [
            {
              "system": "http://loinc.org",
              "code": "62807-3",
              "display": "PhenX - serum creatinine assay for kidney function protocol 141401"
            }
          ],
          "text": "Serum Creatinine"
        },
        "subject": {
          "reference": "Patient/cff51634-6a00-4d0c-ade8-f60ebba0e5c1"
        },
        "encounter": {
          "reference": "Encounter/0d5addae-6fef-4c6d-9b4b-aa101d71f2f1"
        },
        "effectiveDateTime": "2025-10-16",
        "valueQuantity": {
          "value": 0.9,
          "unit": "mg/dL",
          "system": "http://unitsofmeasure.org",
          "code": "mg/dL"
        },
        "interpretation": [
          {
            "coding": [
              {
                "system": "http://terminology.hl7.org/CodeSystem/v3-ObservationInterpretation",
                "code": "N",
                "display": "Normal"
              }
            ]
          }
        ],
        "note": [
          {
            "text": "Definition: https://loinc.org/62807-3/"
          }
        ]
      },
      "request": {
        "method": "POST",
        "url": "Observation"
      }
    },
    {
      "fullUrl": "urn:uuid:a8a67345-b3cc-4ffc-a0eb-e6dff2b8df04",
      "resource": {
        "resourceType": "Observation",
        "id": "a8a67345-b3cc-4ffc-a0eb-e6dff2b8df04",
        "status": "final",
        "category": [
          {
            "coding": [
              {
                "system": "http://terminology.hl7.org/CodeSystem/observation-category",
                "code": "laboratory",
                "display": "Laboratory"
              }
            ],
            "text": "Laboratory"
          }
        ],
        "code": {
          "coding": [
            {
              "system": "http://loinc.org",
              "code": "18729-4",
              "display": "Urinalysis studies"
            }
          ],
          "text": "Urinalysis"
        },
        "subject": {
          "reference": "Patient/cff51634-6a00-4d0c-ade8-f60ebba0e5c1"
        },
        "encounter": {
          "reference": "Encounter/0d5addae-6fef-4c6d-9b4b-aa101d71f2f1"
        },
        "effectiveDateTime": "2025-10-16",
        "note": [
          {
            "text": "Definition: https://loinc.org/18729-4/"
          }
        ]
      },
      "request": {
        "method": "POST",
        "url": "Observation"
      }
    },
    {
      "fullUrl": "urn:uuid:455cff3b-e936-471f-83a9-e1fcecfed501",
      "resource": {
        "resourceType": "Observation",
        "id": "455cff3b-e936-471f-83a9-e1fcecfed501",
        "status": "final",
        "category": [
          {
            "coding": [
              {
                "system": "http://terminology.hl7.org/CodeSystem/observation-category",
                "code": "exam",
                "display": "Exam"
              }
            ],
            "text": "Exam"
          }
        ],
        "code": {
          "coding": [
            {
              "system": "http://snomed.info/sct",
              "code": "36031001",
              "display": "Burning feet"
            }
          ],
          "text": "Burning sensations in hands and feet"
        },
        "subject": {
          "reference": "Patient/cff51634-6a00-4d0c-ade8-f60ebba0e5c1"
        },
        "encounter": {
          "reference": "Encounter/0d5addae-6fef-4c6d-9b4b-aa101d71f2f1"
        },
        "effectivePeriod": {
          "start": "2025-10-16"
        },
        "valueBoolean": true,
        "interpretation": [
          {
            "coding": [
              {
                "system": "http://terminology.hl7.org/CodeSystem/v3-ObservationInterpretation",
                "code": "A",
                "display": "Abnormal"
              }
            ],
            "text": "Abnormal"
          }
        ],
        "note": [
          {
            "text": "Definition: https://snomed.info/id/36031001"
          }
        ]
      },
      "request": {
        "method": "POST",
        "url": "Observation"
      }
    },
    {
      "fullUrl": "urn:uuid:c6bd6e99-b8c0-49e2-8dc3-163224cdf820",
      "resource": {
        "resourceType": "Observation",
        "id": "c6bd6e99-b8c0-49e2-8dc3-163224cdf820",
        "status": "final",
        "category": [
          {
            "coding": [
              {
                "system": "http://terminology.hl7.org/CodeSystem/observation-category",
                "code": "vital-signs",
                "display": "Vital Signs"
              }
            ],
            "text": "Vital Signs"
          }
        ],
        "code": {
          "coding": [
            {
              "system": "http://loinc.org",
              "code": "8310-5",
              "display": "Body temperature"
            }
          ],
          "text": "temperature"
        },
        "subject": {
          "reference": "Patient/cff51634-6a00-4d0c-ade8-f60ebba0e5c1"
        },
        "encounter": {
          "reference": "Encounter/0d5addae-6fef-4c6d-9b4b-aa101d71f2f1"
        },
        "effectiveDateTime": "2025-10-16",
        "valueQuantity": {
          "value": 37.2,
          "unit": "degrees Celsius",
          "system": "http://unitsofmeasure.org",
          "code": "degrees Celsius"
        },
        "interpretation": [
          {
            "coding": [
              {
                "system": "http://terminology.hl7.org/CodeSystem/v3-ObservationInterpretation",
                "code": "N",
                "display": "Normal"
              }
            ],
            "text": "Normal"
          }
        ]
      },
      "request": {
        "method": "POST",
        "url": "Observation"
      }
    },
    {
      "fullUrl": "urn:uuid:5b546b2e-bcaf-4542-923b-73678877e499",
      "resource": {
        "resourceType": "Observation",
        "id": "5b546b2e-bcaf-4542-923b-73678877e499",
        "status": "final",
        "category": [
          {
            "coding": [
              {
                "system": "http://terminology.hl7.org/CodeSystem/observation-category",
                "code": "vital-signs",
                "display": "Vital Signs"
              }
            ],
            "text": "Vital Signs"
          }
        ],
        "code": {
          "coding": [
            {
              "system": "http://loinc.org",
              "code": "62733-1",
              "display": "PhenX - respiratory - pulse oximetry - rest protocol 091101"
            }
          ],
          "text": "pulse"
        },
        "subject": {
          "reference": "Patient/cff51634-6a00-4d0c-ade8-f60ebba0e5c1"
        },
        "encounter": {
          "reference": "Encounter/0d5addae-6fef-4c6d-9b4b-aa101d71f2f1"
        },
        "effectiveDateTime": "2025-10-16",
        "valueQuantity": {
          "value": 82.0,
          "unit": "bpm",
          "system": "http://unitsofmeasure.org",
          "code": "bpm"
        },
        "interpretation": [
          {
            "coding": [
              {
                "system": "http://terminology.hl7.org/CodeSystem/v3-ObservationInterpretation",
                "code": "N",
                "display": "Normal"
              }
            ],
            "text": "Normal"
          }
        ]
      },
      "request": {
        "method": "POST",
        "url": "Observation"
      }
    },
    {
      "fullUrl": "urn:uuid:4db684f4-54d5-4e25-9c1a-5826ac566f07",
      "resource": {
        "resourceType": "Observation",
        "id": "4db684f4-54d5-4e25-9c1a-5826ac566f07",
        "status": "final",
        "category": [
          {
            "coding": [
              {
                "system": "http://terminology.hl7.org/CodeSystem/observation-category",
                "code": "vital-signs",
                "display": "Vital Signs"
              }
            ],
            "text": "Vital Signs"
          }
        ],
        "code": {
          "coding": [
            {
              "system": "http://loinc.org",
              "code": "18684-1",
              "display": "Blood pressure"
            }
          ],
          "text": "blood pressure"
        },
        "subject": {
          "reference": "Patient/cff51634-6a00-4d0c-ade8-f60ebba0e5c1"
        },
        "encounter": {
          "reference": "Encounter/0d5addae-6fef-4c6d-9b4b-aa101d71f2f1"
        },
        "effectiveDateTime": "2025-10-16",
        "interpretation": [
          {
            "coding": [
              {
                "system": "http://terminology.hl7.org/CodeSystem/v3-ObservationInterpretation",
                "code": "N",
                "display": "Normal"
              }
            ],
            "text": "Normal"
          }
        ]
      },
      "request": {
        "method": "POST",
        "url": "Observation"
      }
    },
    {
      "fullUrl": "urn:uuid:48d649ca-27ab-4482-a76e-8b09c6c7e13c",
      "resource": {
        "resourceType": "Observation",
        "id": "48d649ca-27ab-4482-a76e-8b09c6c7e13c",
        "status": "final",
        "category": [
          {
            "coding": [
              {
                "system": "http://terminology.hl7.org/CodeSystem/observation-category",
                "code": "vital-signs",
                "display": "Vital Signs"
              }
            ],
            "text": "Vital Signs"
          }
        ],
        "code": {
          "coding": [
            {
              "system": "http://loinc.org",
              "code": "9279-1",
              "display": "Resp rate"
            }
          ],
          "text": "respiratory rate"
        },
        "subject": {
          "reference": "Patient/cff51634-6a00-4d0c-ade8-f60ebba0e5c1"
        },
        "encounter": {
          "reference": "Encounter/0d5addae-6fef-4c6d-9b4b-aa101d71f2f1"
        },
        "effectiveDateTime": "2025-10-16",
        "valueQuantity": {
          "value": 18.0,
          "unit": "breaths per minute",
          "system": "http://unitsofmeasure.org",
          "code": "breaths per minute"
        },
        "interpretation": [
          {
            "coding": [
              {
                "system": "http://terminology.hl7.org/CodeSystem/v3-ObservationInterpretation",
                "code": "N",
                "display": "Normal"
              }
            ],
            "text": "Normal"
          }
        ]
      },
      "request": {
        "method": "POST",
        "url": "Observation"
      }
    },
    {
      "fullUrl": "urn:uuid:a96fb4b5-83cb-4410-9543-982ccf178d33",
      "resource": {
        "resourceType": "Observation",
        "id": "a96fb4b5-83cb-4410-9543-982ccf178d33",
        "status": "final",
        "category": [
          {
            "coding": [
              {
                "system": "http://terminology.hl7.org/CodeSystem/observation-category",
                "code": "vital-signs",
                "display": "Vital Signs"
              }
            ],
            "text": "Vital Signs"
          }
        ],
        "code": {
          "coding": [
            {
              "system": "http://loinc.org",
              "code": "8337-8",
              "display": "Bdy weight special circumstances"
            }
          ],
          "text": "weight"
        },
        "subject": {
          "reference": "Patient/cff51634-6a00-4d0c-ade8-f60ebba0e5c1"
        },
        "encounter": {
          "reference": "Encounter/0d5addae-6fef-4c6d-9b4b-aa101d71f2f1"
        },
        "effectiveDateTime": "2025-10-16",
        "valueQuantity": {
          "value": 62.0,
          "unit": "kg",
          "system": "http://unitsofmeasure.org",
          "code": "kg"
        },
        "interpretation": [
          {
            "coding": [
              {
                "system": "http://terminology.hl7.org/CodeSystem/v3-ObservationInterpretation",
                "code": "N",
                "display": "Normal"
              }
            ],
            "text": "Normal"
          }
        ]
      },
      "request": {
        "method": "POST",
        "url": "Observation"
      }
    },
    {
      "fullUrl": "urn:uuid:6d4669bf-3192-47d2-8859-82c6c27e76d4",
      "resource": {
        "resourceType": "Observation",
        "id": "6d4669bf-3192-47d2-8859-82c6c27e76d4",
        "status": "final",
        "category": [
          {
            "coding": [
              {
                "system": "http://terminology.hl7.org/CodeSystem/observation-category",
                "code": "vital-signs",
                "display": "Vital Signs"
              }
            ],
            "text": "Vital Signs"
          }
        ],
        "code": {
          "coding": [
            {
              "system": "http://loinc.org",
              "code": "92998-4",
              "display": "Lower segment"
            }
          ],
          "text": "height"
        },
        "subject": {
          "reference": "Patient/cff51634-6a00-4d0c-ade8-f60ebba0e5c1"
        },
        "encounter": {
          "reference": "Encounter/0d5addae-6fef-4c6d-9b4b-aa101d71f2f1"
        },
        "effectiveDateTime": "2025-10-16",
        "valueQuantity": {
          "value": 165.0,
          "unit": "cm",
          "system": "http://unitsofmeasure.org",
          "code": "cm"
        },
        "interpretation": [
          {
            "coding": [
              {
                "system": "http://terminology.hl7.org/CodeSystem/v3-ObservationInterpretation",
                "code": "N",
                "display": "Normal"
              }
            ],
            "text": "Normal"
          }
        ]
      },
      "request": {
        "method": "POST",
        "url": "Observation"
      }
    },
    {
      "fullUrl": "urn:uuid:14267845-f45a-44f0-a80b-9ced24121e7f",
      "resource": {
        "resourceType": "Observation",
        "id": "14267845-f45a-44f0-a80b-9ced24121e7f",
        "status": "final",
        "category": [
          {
            "coding": [
              {
                "system": "http://terminology.hl7.org/CodeSystem/observation-category",
                "code": "vital-signs",
                "display": "Vital Signs"
              }
            ],
            "text": "Vital Signs"
          }
        ],
        "code": {
          "coding": [
            {
              "system": "http://loinc.org",
              "code": "107102-6",
              "display": "BMI formula"
            }
          ],
          "text": "BMI"
        },
        "subject": {
          "reference": "Patient/cff51634-6a00-4d0c-ade8-f60ebba0e5c1"
        },
        "encounter": {
          "reference": "Encounter/0d5addae-6fef-4c6d-9b4b-aa101d71f2f1"
        },
        "effectiveDateTime": "2025-10-16",
        "valueQuantity": {
          "value": 22.8,
          "unit": "kg/m²",
          "system": "http://unitsofmeasure.org",
          "code": "kg/m²"
        },
        "interpretation": [
          {
            "coding": [
              {
                "system": "http://terminology.hl7.org/CodeSystem/v3-ObservationInterpretation",
                "code": "N",
                "display": "Normal"
              }
            ],
            "text": "Normal"
          }
        ]
      },
      "request": {
        "method": "POST",
        "url": "Observation"
      }
    },
    {
      "fullUrl": "urn:uuid:71d97698-d9b8-4fd6-bfed-c32c0ac87521",
      "resource": {
        "resourceType": "Observation",
        "id": "71d97698-d9b8-4fd6-bfed-c32c0ac87521",
        "status": "final",
        "category": [
          {
            "coding": [
              {
                "system": "http://terminology.hl7.org/CodeSystem/observation-category",
                "code": "vital-signs",
                "display": "Vital Signs"
              }
            ],
            "text": "Vital Signs"
          }
        ],
        "code": {
          "coding": [
            {
              "system": "http://loinc.org",
              "code": "2717-7",
              "display": "OxyHgb MFr Plas"
            }
          ],
          "text": "oxygen saturation"
        },
        "subject": {
          "reference": "Patient/cff51634-6a00-4d0c-ade8-f60ebba0e5c1"
        },
        "encounter": {
          "reference": "Encounter/0d5addae-6fef-4c6d-9b4b-aa101d71f2f1"
        },
        "effectiveDateTime": "2025-10-16",
        "valueQuantity": {
          "value": 98.0,
          "unit": "%",
          "system": "http://unitsofmeasure.org",
          "code": "%"
        },
        "interpretation": [
          {
            "coding": [
              {
                "system": "http://terminology.hl7.org/CodeSystem/v3-ObservationInterpretation",
                "code": "N",
                "display": "Normal"
              }
            ],
            "text": "Normal"
          }
        ]
      },
      "request": {
        "method": "POST",
        "url": "Observation"
      }
    },
    {
      "fullUrl": "urn:uuid:e7e92367-1705-443a-928f-9cbad3f4b093",
      "resource": {
        "resourceType": "MedicationStatement",
        "id": "e7e92367-1705-443a-928f-9cbad3f4b093",
        "status": "recorded",
        "medication": {
          "concept": {
            "coding": [
              {
                "system": "http://snomed.info/sct",
                "code": "4741000124102",
                "display": "Over-the counter medication discontinued"
              }
            ],
            "text": "over-the-counter pain relievers"
          }
        },
        "subject": {
          "reference": "Patient/cff51634-6a00-4d0c-ade8-f60ebba0e5c1"
        },
        "encounter": {
          "reference": "Encounter/0d5addae-6fef-4c6d-9b4b-aa101d71f2f1"
        },
        "effectiveDateTime": "2025-10-16",
        "informationSource": [
          {
            "reference": "Patient/cff51634-6a00-4d0c-ade8-f60ebba0e5c1"
          }
        ],
        "dosage": [
          {
            "text": "as needed"
          }
        ]
      },
      "request": {
        "method": "POST",
        "url": "MedicationStatement"
      }
    },
    {
      "fullUrl": "urn:uuid:343c7c38-df91-46ad-a66a-6510cf73b845",
      "resource": {
        "resourceType": "Encounter",
        "id": "343c7c38-df91-46ad-a66a-6510cf73b845",
        "identifier": [
          {
            "use": "temp",
            "value": "Encounter_Emily Wilson_20251021093804"
          }
        ],
        "status": "completed",
        "priority": {
          "coding": [
            {
              "system": "http://snomed.info/sct",
              "code": "17621005",
              "display": "Normal"
            }
          ]
        },
        "type": [
          {
            "coding": [
              {
                "system": "http://snomed.info/sct",
                "code": "11429006",
                "display": "Consultation"
              }
            ]
          }
        ],
        "subject": {
          "reference": "Patient/cff51634-6a00-4d0c-ade8-f60ebba0e5c1",
          "display": "Emily Wilson"
        },
        "reason": [
          {
            "value": [
              {
                "concept": {
                  "text": "routine check-up"
                }
              }
            ]
          }
        ]
      },
      "request": {
        "method": "POST",
        "url": "Encounter"
      }
    },
    {
      "fullUrl": "urn:uuid:bc5c58b5-7bce-453a-917d-2acac959f161",
      "resource": {
        "resourceType": "Observation",
        "id": "bc5c58b5-7bce-453a-917d-2acac959f161",
        "status": "final",
        "category": [
          {
            "coding": [
              {
                "system": "http://terminology.hl7.org/CodeSystem/observation-category",
                "code": "vital-signs",
                "display": "Vital Signs"
              }
            ],
            "text": "Vital Signs"
          }
        ],
        "code": {
          "coding": [
            {
              "system": "http://loinc.org",
              "code": "18684-1",
              "display": "Blood pressure"
            }
          ],
          "text": "blood pressure"
        },
        "subject": {
          "reference": "Patient/cff51634-6a00-4d0c-ade8-f60ebba0e5c1"
        },
        "encounter": {
          "reference": "Encounter/343c7c38-df91-46ad-a66a-6510cf73b845"
        },
        "effectiveDateTime": "2023-10-16",
        "interpretation": [
          {
            "coding": [
              {
                "system": "http://terminology.hl7.org/CodeSystem/v3-ObservationInterpretation",
                "code": "N",
                "display": "Normal"
              }
            ],
            "text": "Normal"
          }
        ]
      },
      "request": {
        "method": "POST",
        "url": "Observation"
      }
    },
    {
      "fullUrl": "urn:uuid:ce037f5a-0931-4717-9565-94bb87b8c16f",
      "resource": {
        "resourceType": "List",
        "id": "ce037f5a-0931-4717-9565-94bb87b8c16f",
        "contained": [
          {
            "resourceType": "FamilyMemberHistory",
            "id": "fmh-2",
            "status": "completed",
            "patient": {
              "reference": "Patient/cff51634-6a00-4d0c-ade8-f60ebba0e5c1"
            },
            "relationship": {
              "coding": [
                {
                  "system": "http://snomed.info/sct",
                  "code": "85411004",
                  "display": "Younger brother"
                }
              ]
            },
            "deceasedBoolean": false,
            "condition": [
              {
                "code": {
                  "coding": [
                    {
                      "system": "http://snomed.info/sct",
                      "code": "247331000",
                      "display": "Ear sensations"
                    }
                  ]
                }
              }
            ]
          }
        ],
        "status": "current",
        "mode": "snapshot",
        "code": {
          "coding": [
            {
              "system": "http://loinc.org",
              "code": "8670-2",
              "display": "History of family member diseases"
            }
          ]
        },
        "subject": [
          {
            "reference": "Patient/cff51634-6a00-4d0c-ade8-f60ebba0e5c1"
          }
        ],
        "entry": [
          {
            "item": {
              "reference": "#fmh-2"
            }
          }
        ]
      },
      "request": {
        "method": "POST",
        "url": "FamilyMemberHistory"
      }
    }
  ]
}