{
  "resourceType": "Bundle",
  "type": "transaction",
  "entry": [
    {
      "fullUrl": "urn:uuid:711269c5-d3fb-436f-b5c6-b9245121ba71",
      "resource": {
        "resourceType": "Patient",
        "id": "711269c5-d3fb-436f-b5c6-b9245121ba71",
        "name": [
          {
            "family": "Wilson",
            "given": [
              "Emily"
            ]
          }
        ],
        "gender": "female",
        "birthDate": "1993-01-01",
        "address": [
          {}
        ]
      },
      "request": {
        "method": "POST",
        "url": "Patient"
      }
    },
    {
      "fullUrl": "urn:uuid:1f870833-d336-4d81-a1a9-f33a6ea1f728",
      "resource": {
        "resourceType": "Encounter",
        "id": "1f870833-d336-4d81-a1a9-f33a6ea1f728",
        "identifier": [
          {
            "use": "temp",
            "value": "Encounter_Emily Wilson_20251023095807"
          }
        ],
        "status": "completed",
        "priority": {
          "coding": [
            {
              "system": "http://snomed.info/sct",
              "code": "17621005",
              "display": "Normal"
            }
          ]
        },
        "type": [
          {
            "coding": [
              {
                "system": "http://snomed.info/sct",
                "code": "11429006",
                "display": "Consultation"
              }
            ]
          }
        ],
        "subject": {
          "reference": "Patient/711269c5-d3fb-436f-b5c6-b9245121ba71",
          "display": "Emily Wilson"
        },
        "reason": [
          {
            "value": [
              {
                "concept": {
                  "text": "intermittent dark urine"
                }
              }
            ]
          }
        ]
      },
      "request": {
        "method": "POST",
        "url": "Encounter"
      }
    },
    {
      "fullUrl": "urn:uuid:b0540c6e-7315-4e46-9605-2f612343f3c4",
      "resource": {
        "resourceType": "Observation",
        "id": "b0540c6e-7315-4e46-9605-2f612343f3c4",
        "status": "final",
        "category": [
          {
            "coding": [
              {
                "system": "http://terminology.hl7.org/CodeSystem/observation-category",
                "code": "laboratory",
                "display": "Laboratory"
              }
            ],
            "text": "Laboratory"
          }
        ],
        "code": {
          "coding": [
            {
              "system": "http://loinc.org",
              "code": "62854-5",
              "display": "PhenX - glycosylated hemoglobin assay reflecting long-term glucose concentration protocol 140901"
            }
          ],
          "text": "Hemoglobin"
        },
        "subject": {
          "reference": "Patient/711269c5-d3fb-436f-b5c6-b9245121ba71"
        },
        "encounter": {
          "reference": "Encounter/1f870833-d336-4d81-a1a9-f33a6ea1f728"
        },
        "effectiveDateTime": "2025-10-16",
        "valueQuantity": {
          "value": 12.5,
          "unit": "grams per deciliter",
          "system": "http://unitsofmeasure.org",
          "code": "grams per deciliter"
        },
        "interpretation": [
          {
            "coding": [
              {
                "system": "http://terminology.hl7.org/CodeSystem/v3-ObservationInterpretation",
                "code": "L",
                "display": "Low"
              }
            ]
          }
        ],
        "note": [
          {
            "text": "Definition: https://loinc.org/62854-5/"
          }
        ]
      },
      "request": {
        "method": "POST",
        "url": "Observation"
      }
    },
    {
      "fullUrl": "urn:uuid:0f2ef189-d7b3-4db9-8762-e92540c91a63",
      "resource": {
        "resourceType": "Observation",
        "id": "0f2ef189-d7b3-4db9-8762-e92540c91a63",
        "status": "final",
        "category": [
          {
            "coding": [
              {
                "system": "http://terminology.hl7.org/CodeSystem/observation-category",
                "code": "laboratory",
                "display": "Laboratory"
              }
            ],
            "text": "Laboratory"
          }
        ],
        "code": {
          "coding": [
            {
              "system": "http://loinc.org",
              "code": "41986-1",
              "display": "Hematocrit test status &or results"
            }
          ],
          "text": "Hematocrit"
        },
        "subject": {
          "reference": "Patient/711269c5-d3fb-436f-b5c6-b9245121ba71"
        },
        "encounter": {
          "reference": "Encounter/1f870833-d336-4d81-a1a9-f33a6ea1f728"
        },
        "effectiveDateTime": "2025-10-16",
        "valueQuantity": {
          "value": 37.0,
          "unit": "%",
          "system": "http://unitsofmeasure.org",
          "code": "%"
        },
        "interpretation": [
          {
            "coding": [
              {
                "system": "http://terminology.hl7.org/CodeSystem/v3-ObservationInterpretation",
                "code": "L",
                "display": "Low"
              }
            ]
          }
        ],
        "note": [
          {
            "text": "Definition: https://loinc.org/41986-1/"
          }
        ]
      },
      "request": {
        "method": "POST",
        "url": "Observation"
      }
    },
    {
      "fullUrl": "urn:uuid:4fe08e0f-b8d1-4359-b88c-ee039c821f92",
      "resource": {
        "resourceType": "Observation",
        "id": "4fe08e0f-b8d1-4359-b88c-ee039c821f92",
        "status": "final",
        "category": [
          {
            "coding": [
              {
                "system": "http://terminology.hl7.org/CodeSystem/observation-category",
                "code": "laboratory",
                "display": "Laboratory"
              }
            ],
            "text": "Laboratory"
          }
        ],
        "code": {
          "coding": [
            {
              "system": "http://loinc.org",
              "code": "14196-0",
              "display": "Retics #"
            }
          ],
          "text": "Reticulocyte count"
        },
        "subject": {
          "reference": "Patient/711269c5-d3fb-436f-b5c6-b9245121ba71"
        },
        "encounter": {
          "reference": "Encounter/1f870833-d336-4d81-a1a9-f33a6ea1f728"
        },
        "effectiveDateTime": "2025-10-16",
        "valueQuantity": {
          "value": 2.5,
          "unit": "%",
          "system": "http://unitsofmeasure.org",
          "code": "%"
        },
        "interpretation": [
          {
            "coding": [
              {
                "system": "http://terminology.hl7.org/CodeSystem/v3-ObservationInterpretation",
                "code": "L",
                "display": "Low"
              }
            ]
          }
        ],
        "note": [
          {
            "text": "Definition: https://loinc.org/14196-0/"
          }
        ]
      },
      "request": {
        "method": "POST",
        "url": "Observation"
      }
    },
    {
      "fullUrl": "urn:uuid:aab7d426-f5a8-44f2-ac5b-30bd91dd74ed",
      "resource": {
        "resourceType": "Observation",
        "id": "aab7d426-f5a8-44f2-ac5b-30bd91dd74ed",
        "status": "final",
        "category": [
          {
            "coding": [
              {
                "system": "http://terminology.hl7.org/CodeSystem/observation-category",
                "code": "exam",
                "display": "Exam"
              }
            ],
            "text": "Exam"
          }
        ],
        "code": {
          "coding": [
            {
              "system": "http://snomed.info/sct",
              "code": "84229001",
              "display": "Fatigue"
            }
          ],
          "text": "Fatigue"
        },
        "subject": {
          "reference": "Patient/711269c5-d3fb-436f-b5c6-b9245121ba71"
        },
        "encounter": {
          "reference": "Encounter/1f870833-d336-4d81-a1a9-f33a6ea1f728"
        },
        "effectivePeriod": {
          "start": "2025-10-16"
        },
        "valueBoolean": true,
        "note": [
          {
            "text": "Definition: https://snomed.info/id/84229001"
          }
        ]
      },
      "request": {
        "method": "POST",
        "url": "Observation"
      }
    },
    {
      "fullUrl": "urn:uuid:927135db-4674-46dc-9728-b1a438606709",
      "resource": {
        "resourceType": "Observation",
        "id": "927135db-4674-46dc-9728-b1a438606709",
        "status": "final",
        "category": [
          {
            "coding": [
              {
                "system": "http://terminology.hl7.org/CodeSystem/observation-category",
                "code": "exam",
                "display": "Exam"
              }
            ],
            "text": "Exam"
          }
        ],
        "code": {
          "coding": [
            {
              "system": "http://snomed.info/sct",
              "code": "135833008",
              "display": "CLASP shortness of breath score"
            }
          ],
          "text": "Shortness of breath"
        },
        "subject": {
          "reference": "Patient/711269c5-d3fb-436f-b5c6-b9245121ba71"
        },
        "encounter": {
          "reference": "Encounter/1f870833-d336-4d81-a1a9-f33a6ea1f728"
        },
        "effectivePeriod": {
          "start": "2025-10-16"
        },
        "valueBoolean": true,
        "note": [
          {
            "text": "Definition: https://snomed.info/id/135833008"
          }
        ]
      },
      "request": {
        "method": "POST",
        "url": "Observation"
      }
    },
    {
      "fullUrl": "urn:uuid:649b3c28-f542-4892-8d63-ce2ecd5df26f",
      "resource": {
        "resourceType": "Observation",
        "id": "649b3c28-f542-4892-8d63-ce2ecd5df26f",
        "status": "final",
        "category": [
          {
            "coding": [
              {
                "system": "http://terminology.hl7.org/CodeSystem/observation-category",
                "code": "vital-signs",
                "display": "Vital Signs"
              }
            ],
            "text": "Vital Signs"
          }
        ],
        "code": {
          "coding": [
            {
              "system": "http://loinc.org",
              "code": "8310-5",
              "display": "Body temperature"
            }
          ],
          "text": "temperature"
        },
        "subject": {
          "reference": "Patient/711269c5-d3fb-436f-b5c6-b9245121ba71"
        },
        "encounter": {
          "reference": "Encounter/1f870833-d336-4d81-a1a9-f33a6ea1f728"
        },
        "effectiveDateTime": "2025-10-16",
        "valueQuantity": {
          "value": 98.6,
          "unit": "degrees Fahrenheit",
          "system": "http://unitsofmeasure.org",
          "code": "degrees Fahrenheit"
        },
        "interpretation": [
          {
            "coding": [
              {
                "system": "http://terminology.hl7.org/CodeSystem/v3-ObservationInterpretation",
                "code": "N",
                "display": "Normal"
              }
            ],
            "text": "Normal"
          }
        ]
      },
      "request": {
        "method": "POST",
        "url": "Observation"
      }
    },
    {
      "fullUrl": "urn:uuid:326cdb70-d774-462c-a67d-758df77362d7",
      "resource": {
        "resourceType": "Observation",
        "id": "326cdb70-d774-462c-a67d-758df77362d7",
        "status": "final",
        "category": [
          {
            "coding": [
              {
                "system": "http://terminology.hl7.org/CodeSystem/observation-category",
                "code": "vital-signs",
                "display": "Vital Signs"
              }
            ],
            "text": "Vital Signs"
          }
        ],
        "code": {
          "coding": [
            {
              "system": "http://loinc.org",
              "code": "62733-1",
              "display": "PhenX - respiratory - pulse oximetry - rest protocol 091101"
            }
          ],
          "text": "pulse"
        },
        "subject": {
          "reference": "Patient/711269c5-d3fb-436f-b5c6-b9245121ba71"
        },
        "encounter": {
          "reference": "Encounter/1f870833-d336-4d81-a1a9-f33a6ea1f728"
        },
        "effectiveDateTime": "2025-10-16",
        "valueQuantity": {
          "value": 72.0,
          "unit": "beats per minute",
          "system": "http://unitsofmeasure.org",
          "code": "beats per minute"
        },
        "interpretation": [
          {
            "coding": [
              {
                "system": "http://terminology.hl7.org/CodeSystem/v3-ObservationInterpretation",
                "code": "N",
                "display": "Normal"
              }
            ],
            "text": "Normal"
          }
        ]
      },
      "request": {
        "method": "POST",
        "url": "Observation"
      }
    },
    {
      "fullUrl": "urn:uuid:a1924cd1-8e4a-49f9-93ab-caa89eeeddea",
      "resource": {
        "resourceType": "Observation",
        "id": "a1924cd1-8e4a-49f9-93ab-caa89eeeddea",
        "status": "final",
        "category": [
          {
            "coding": [
              {
                "system": "http://terminology.hl7.org/CodeSystem/observation-category",
                "code": "vital-signs",
                "display": "Vital Signs"
              }
            ],
            "text": "Vital Signs"
          }
        ],
        "code": {
          "coding": [
            {
              "system": "http://loinc.org",
              "code": "18684-1",
              "display": "Blood pressure"
            }
          ],
          "text": "blood pressure"
        },
        "subject": {
          "reference": "Patient/711269c5-d3fb-436f-b5c6-b9245121ba71"
        },
        "encounter": {
          "reference": "Encounter/1f870833-d336-4d81-a1a9-f33a6ea1f728"
        },
        "effectiveDateTime": "2025-10-16",
        "valueQuantity": {
          "value": 120.0,
          "unit": "mmHg",
          "system": "http://unitsofmeasure.org",
          "code": "mmHg"
        },
        "interpretation": [
          {
            "coding": [
              {
                "system": "http://terminology.hl7.org/CodeSystem/v3-ObservationInterpretation",
                "code": "N",
                "display": "Normal"
              }
            ],
            "text": "Normal"
          }
        ]
      },
      "request": {
        "method": "POST",
        "url": "Observation"
      }
    },
    {
      "fullUrl": "urn:uuid:5aa6dcf1-bea2-4e61-8209-10b5f95d078d",
      "resource": {
        "resourceType": "Observation",
        "id": "5aa6dcf1-bea2-4e61-8209-10b5f95d078d",
        "status": "final",
        "category": [
          {
            "coding": [
              {
                "system": "http://terminology.hl7.org/CodeSystem/observation-category",
                "code": "vital-signs",
                "display": "Vital Signs"
              }
            ],
            "text": "Vital Signs"
          }
        ],
        "code": {
          "coding": [
            {
              "system": "http://loinc.org",
              "code": "9279-1",
              "display": "Resp rate"
            }
          ],
          "text": "respiratory rate"
        },
        "subject": {
          "reference": "Patient/711269c5-d3fb-436f-b5c6-b9245121ba71"
        },
        "encounter": {
          "reference": "Encounter/1f870833-d336-4d81-a1a9-f33a6ea1f728"
        },
        "effectiveDateTime": "2025-10-16",
        "valueQuantity": {
          "value": 16.0,
          "unit": "breaths per minute",
          "system": "http://unitsofmeasure.org",
          "code": "breaths per minute"
        },
        "interpretation": [
          {
            "coding": [
              {
                "system": "http://terminology.hl7.org/CodeSystem/v3-ObservationInterpretation",
                "code": "N",
                "display": "Normal"
              }
            ],
            "text": "Normal"
          }
        ]
      },
      "request": {
        "method": "POST",
        "url": "Observation"
      }
    },
    {
      "fullUrl": "urn:uuid:4f332a41-f04e-4b1e-bd91-291696f46dd1",
      "resource": {
        "resourceType": "Observation",
        "id": "4f332a41-f04e-4b1e-bd91-291696f46dd1",
        "status": "final",
        "category": [
          {
            "coding": [
              {
                "system": "http://terminology.hl7.org/CodeSystem/observation-category",
                "code": "vital-signs",
                "display": "Vital Signs"
              }
            ],
            "text": "Vital Signs"
          }
        ],
        "code": {
          "coding": [
            {
              "system": "http://loinc.org",
              "code": "2717-7",
              "display": "OxyHgb MFr Plas"
            }
          ],
          "text": "oxygen saturation"
        },
        "subject": {
          "reference": "Patient/711269c5-d3fb-436f-b5c6-b9245121ba71"
        },
        "encounter": {
          "reference": "Encounter/1f870833-d336-4d81-a1a9-f33a6ea1f728"
        },
        "effectiveDateTime": "2025-10-16",
        "valueQuantity": {
          "value": 98.0,
          "unit": "%",
          "system": "http://unitsofmeasure.org",
          "code": "%"
        },
        "interpretation": [
          {
            "coding": [
              {
                "system": "http://terminology.hl7.org/CodeSystem/v3-ObservationInterpretation",
                "code": "N",
                "display": "Normal"
              }
            ],
            "text": "Normal"
          }
        ]
      },
      "request": {
        "method": "POST",
        "url": "Observation"
      }
    },
    {
      "fullUrl": "urn:uuid:d83f1721-6ffe-408b-a80e-83c2827f3e05",
      "resource": {
        "resourceType": "Observation",
        "id": "d83f1721-6ffe-408b-a80e-83c2827f3e05",
        "status": "final",
        "category": [
          {
            "coding": [
              {
                "system": "http://terminology.hl7.org/CodeSystem/observation-category",
                "code": "vital-signs",
                "display": "Vital Signs"
              }
            ],
            "text": "Vital Signs"
          }
        ],
        "code": {
          "coding": [
            {
              "system": "http://loinc.org",
              "code": "8337-8",
              "display": "Bdy weight special circumstances"
            }
          ],
          "text": "weight"
        },
        "subject": {
          "reference": "Patient/711269c5-d3fb-436f-b5c6-b9245121ba71"
        },
        "encounter": {
          "reference": "Encounter/1f870833-d336-4d81-a1a9-f33a6ea1f728"
        },
        "effectiveDateTime": "2025-10-16",
        "valueQuantity": {
          "value": 130.0,
          "unit": "pounds",
          "system": "http://unitsofmeasure.org",
          "code": "pounds"
        },
        "interpretation": [
          {
            "coding": [
              {
                "system": "http://terminology.hl7.org/CodeSystem/v3-ObservationInterpretation",
                "code": "N",
                "display": "Normal"
              }
            ],
            "text": "Normal"
          }
        ]
      },
      "request": {
        "method": "POST",
        "url": "Observation"
      }
    },
    {
      "fullUrl": "urn:uuid:d5fbc99b-24de-4326-9d49-c72437453fe7",
      "resource": {
        "resourceType": "Observation",
        "id": "d5fbc99b-24de-4326-9d49-c72437453fe7",
        "status": "final",
        "category": [
          {
            "coding": [
              {
                "system": "http://terminology.hl7.org/CodeSystem/observation-category",
                "code": "vital-signs",
                "display": "Vital Signs"
              }
            ],
            "text": "Vital Signs"
          }
        ],
        "code": {
          "coding": [
            {
              "system": "http://loinc.org",
              "code": "92998-4",
              "display": "Lower segment"
            }
          ],
          "text": "height"
        },
        "subject": {
          "reference": "Patient/711269c5-d3fb-436f-b5c6-b9245121ba71"
        },
        "encounter": {
          "reference": "Encounter/1f870833-d336-4d81-a1a9-f33a6ea1f728"
        },
        "effectiveDateTime": "2025-10-16",
        "valueQuantity": {
          "value": 66.0,
          "unit": "inches",
          "system": "http://unitsofmeasure.org",
          "code": "inches"
        },
        "interpretation": [
          {
            "coding": [
              {
                "system": "http://terminology.hl7.org/CodeSystem/v3-ObservationInterpretation",
                "code": "N",
                "display": "Normal"
              }
            ],
            "text": "Normal"
          }
        ]
      },
      "request": {
        "method": "POST",
        "url": "Observation"
      }
    },
    {
      "fullUrl": "urn:uuid:4b87d3a3-9a04-4dcc-bd94-3269877f310d",
      "resource": {
        "resourceType": "Observation",
        "id": "4b87d3a3-9a04-4dcc-bd94-3269877f310d",
        "status": "final",
        "category": [
          {
            "coding": [
              {
                "system": "http://terminology.hl7.org/CodeSystem/observation-category",
                "code": "vital-signs",
                "display": "Vital Signs"
              }
            ],
            "text": "Vital Signs"
          }
        ],
        "code": {
          "coding": [
            {
              "system": "http://loinc.org",
              "code": "107102-6",
              "display": "BMI formula"
            }
          ],
          "text": "BMI"
        },
        "subject": {
          "reference": "Patient/711269c5-d3fb-436f-b5c6-b9245121ba71"
        },
        "encounter": {
          "reference": "Encounter/1f870833-d336-4d81-a1a9-f33a6ea1f728"
        },
        "effectiveDateTime": "2025-10-16",
        "interpretation": [
          {
            "coding": [
              {
                "system": "http://terminology.hl7.org/CodeSystem/v3-ObservationInterpretation",
                "code": "N",
                "display": "Normal"
              }
            ],
            "text": "Normal"
          }
        ]
      },
      "request": {
        "method": "POST",
        "url": "Observation"
      }
    },
    {
      "fullUrl": "urn:uuid:60495283-da37-4d10-9dbc-ee4376df2d8c",
      "resource": {
        "resourceType": "Encounter",
        "id": "60495283-da37-4d10-9dbc-ee4376df2d8c",
        "identifier": [
          {
            "use": "temp",
            "value": "Encounter_Emily Wilson_20251023095813"
          }
        ],
        "status": "completed",
        "priority": {
          "coding": [
            {
              "system": "http://snomed.info/sct",
              "code": "17621005",
              "display": "Normal"
            }
          ]
        },
        "type": [
          {
            "coding": [
              {
                "system": "http://snomed.info/sct",
                "code": "11429006",
                "display": "Consultation"
              }
            ]
          }
        ],
        "subject": {
          "reference": "Patient/711269c5-d3fb-436f-b5c6-b9245121ba71",
          "display": "Emily Wilson"
        },
        "reason": [
          {
            "value": [
              {
                "concept": {
                  "text": "routine check-up"
                }
              }
            ]
          }
        ]
      },
      "request": {
        "method": "POST",
        "url": "Encounter"
      }
    },
    {
      "fullUrl": "urn:uuid:73257e86-2ead-45e0-b251-1c30c44ecbf4",
      "resource": {
        "resourceType": "Observation",
        "id": "73257e86-2ead-45e0-b251-1c30c44ecbf4",
        "status": "final",
        "category": [
          {
            "coding": [
              {
                "system": "http://terminology.hl7.org/CodeSystem/observation-category",
                "code": "laboratory",
                "display": "Laboratory"
              }
            ],
            "text": "Laboratory"
          }
        ],
        "code": {
          "coding": [
            {
              "system": "http://loinc.org",
              "code": "58410-2",
              "display": "Complete blood count panel"
            }
          ],
          "text": "Complete blood count"
        },
        "subject": {
          "reference": "Patient/711269c5-d3fb-436f-b5c6-b9245121ba71"
        },
        "encounter": {
          "reference": "Encounter/60495283-da37-4d10-9dbc-ee4376df2d8c"
        },
        "effectiveDateTime": "2025-04-16",
        "interpretation": [
          {
            "coding": [
              {
                "system": "http://terminology.hl7.org/CodeSystem/v3-ObservationInterpretation",
                "code": "N",
                "display": "Normal"
              }
            ]
          }
        ],
        "note": [
          {
            "text": "Definition: https://loinc.org/58410-2/"
          }
        ]
      },
      "request": {
        "method": "POST",
        "url": "Observation"
      }
    },
    {
      "fullUrl": "urn:uuid:14f226a5-deef-43ea-99cb-aa09c288b267",
      "resource": {
        "resourceType": "List",
        "id": "14f226a5-deef-43ea-99cb-aa09c288b267",
        "contained": [
          {
            "resourceType": "FamilyMemberHistory",
            "id": "fmh-2",
            "status": "completed",
            "patient": {
              "reference": "Patient/711269c5-d3fb-436f-b5c6-b9245121ba71"
            },
            "relationship": {
              "coding": [
                {
                  "system": "http://snomed.info/sct",
                  "code": "72705000",
                  "display": "Mother"
                }
              ]
            },
            "deceasedBoolean": false,
            "condition": []
          }
        ],
        "status": "current",
        "mode": "snapshot",
        "code": {
          "coding": [
            {
              "system": "http://loinc.org",
              "code": "8670-2",
              "display": "History of family member diseases"
            }
          ]
        },
        "subject": [
          {
            "reference": "Patient/711269c5-d3fb-436f-b5c6-b9245121ba71"
          }
        ],
        "entry": [
          {
            "item": {
              "reference": "#fmh-2"
            }
          }
        ]
      },
      "request": {
        "method": "POST",
        "url": "FamilyMemberHistory"
      }
    }
  ]
}