{
  "resourceType": "Bundle",
  "type": "transaction",
  "entry": [
    {
      "fullUrl": "urn:uuid:ccbeaa26-2a90-4440-b9da-86f4f3bafdae",
      "resource": {
        "resourceType": "Patient",
        "id": "ccbeaa26-2a90-4440-b9da-86f4f3bafdae",
        "name": [
          {
            "family": "Patel",
            "given": [
              "Sophia"
            ]
          }
        ],
        "gender": "female",
        "birthDate": "1993-01-01",
        "address": [
          {}
        ]
      },
      "request": {
        "method": "POST",
        "url": "Patient"
      }
    },
    {
      "fullUrl": "urn:uuid:6a647f70-40d3-47e3-82cc-16137dfe4904",
      "resource": {
        "resourceType": "Encounter",
        "id": "6a647f70-40d3-47e3-82cc-16137dfe4904",
        "identifier": [
          {
            "use": "temp",
            "value": "Encounter_Sophia Patel_20251023095742"
          }
        ],
        "status": "completed",
        "priority": {
          "coding": [
            {
              "system": "http://snomed.info/sct",
              "code": "17621005",
              "display": "Normal"
            }
          ]
        },
        "type": [
          {
            "coding": [
              {
                "system": "http://snomed.info/sct",
                "code": "11429006",
                "display": "Consultation"
              }
            ]
          }
        ],
        "subject": {
          "reference": "Patient/ccbeaa26-2a90-4440-b9da-86f4f3bafdae",
          "display": "Sophia Patel"
        },
        "reason": [
          {
            "value": [
              {
                "concept": {
                  "text": "complaints of recurring episodes of dark urine and fatigue"
                }
              }
            ]
          }
        ]
      },
      "request": {
        "method": "POST",
        "url": "Encounter"
      }
    },
    {
      "fullUrl": "urn:uuid:d2bf4d82-6d87-47e9-b207-99d37d75a206",
      "resource": {
        "resourceType": "Observation",
        "id": "d2bf4d82-6d87-47e9-b207-99d37d75a206",
        "status": "final",
        "category": [
          {
            "coding": [
              {
                "system": "http://terminology.hl7.org/CodeSystem/observation-category",
                "code": "laboratory",
                "display": "Laboratory"
              }
            ],
            "text": "Laboratory"
          }
        ],
        "code": {
          "coding": [
            {
              "system": "http://loinc.org",
              "code": "62854-5",
              "display": "PhenX - glycosylated hemoglobin assay reflecting long-term glucose concentration protocol 140901"
            }
          ],
          "text": "Hemoglobin"
        },
        "subject": {
          "reference": "Patient/ccbeaa26-2a90-4440-b9da-86f4f3bafdae"
        },
        "encounter": {
          "reference": "Encounter/6a647f70-40d3-47e3-82cc-16137dfe4904"
        },
        "effectiveDateTime": "2025-10-16",
        "valueQuantity": {
          "value": 12.1,
          "unit": "g/dL",
          "system": "http://unitsofmeasure.org",
          "code": "g/dL"
        },
        "note": [
          {
            "text": "Definition: https://loinc.org/62854-5/"
          }
        ]
      },
      "request": {
        "method": "POST",
        "url": "Observation"
      }
    },
    {
      "fullUrl": "urn:uuid:d0a39f8f-217b-4f5f-91d7-721072ed7b41",
      "resource": {
        "resourceType": "Observation",
        "id": "d0a39f8f-217b-4f5f-91d7-721072ed7b41",
        "status": "final",
        "category": [
          {
            "coding": [
              {
                "system": "http://terminology.hl7.org/CodeSystem/observation-category",
                "code": "laboratory",
                "display": "Laboratory"
              }
            ],
            "text": "Laboratory"
          }
        ],
        "code": {
          "coding": [
            {
              "system": "http://loinc.org",
              "code": "76141-1",
              "display": "CHCMr Bld-mCnc"
            }
          ],
          "text": "Mean Corpuscular Volume"
        },
        "subject": {
          "reference": "Patient/ccbeaa26-2a90-4440-b9da-86f4f3bafdae"
        },
        "encounter": {
          "reference": "Encounter/6a647f70-40d3-47e3-82cc-16137dfe4904"
        },
        "effectiveDateTime": "2025-10-16",
        "valueQuantity": {
          "value": 90.0,
          "unit": "fL",
          "system": "http://unitsofmeasure.org",
          "code": "fL"
        },
        "note": [
          {
            "text": "Definition: https://loinc.org/76141-1/"
          }
        ]
      },
      "request": {
        "method": "POST",
        "url": "Observation"
      }
    },
    {
      "fullUrl": "urn:uuid:bf9b8686-86e0-49b6-8604-d9d29db7c2ea",
      "resource": {
        "resourceType": "Observation",
        "id": "bf9b8686-86e0-49b6-8604-d9d29db7c2ea",
        "status": "final",
        "category": [
          {
            "coding": [
              {
                "system": "http://terminology.hl7.org/CodeSystem/observation-category",
                "code": "laboratory",
                "display": "Laboratory"
              }
            ],
            "text": "Laboratory"
          }
        ],
        "code": {
          "coding": [
            {
              "system": "http://loinc.org",
              "code": "14196-0",
              "display": "Retics #"
            }
          ],
          "text": "Reticulocyte Count"
        },
        "subject": {
          "reference": "Patient/ccbeaa26-2a90-4440-b9da-86f4f3bafdae"
        },
        "encounter": {
          "reference": "Encounter/6a647f70-40d3-47e3-82cc-16137dfe4904"
        },
        "effectiveDateTime": "2025-10-16",
        "valueQuantity": {
          "value": 2.5,
          "unit": "%",
          "system": "http://unitsofmeasure.org",
          "code": "%"
        },
        "note": [
          {
            "text": "Definition: https://loinc.org/14196-0/"
          }
        ]
      },
      "request": {
        "method": "POST",
        "url": "Observation"
      }
    },
    {
      "fullUrl": "urn:uuid:d0558d77-7988-4a07-b5e6-bbb38e1b7d19",
      "resource": {
        "resourceType": "Observation",
        "id": "d0558d77-7988-4a07-b5e6-bbb38e1b7d19",
        "status": "final",
        "category": [
          {
            "coding": [
              {
                "system": "http://terminology.hl7.org/CodeSystem/observation-category",
                "code": "exam",
                "display": "Exam"
              }
            ],
            "text": "Exam"
          }
        ],
        "code": {
          "coding": [
            {
              "system": "http://snomed.info/sct",
              "code": "84229001",
              "display": "Fatigue"
            }
          ],
          "text": "Fatigue"
        },
        "subject": {
          "reference": "Patient/ccbeaa26-2a90-4440-b9da-86f4f3bafdae"
        },
        "encounter": {
          "reference": "Encounter/6a647f70-40d3-47e3-82cc-16137dfe4904"
        },
        "effectivePeriod": {
          "start": "2025-10-16"
        },
        "valueBoolean": true,
        "interpretation": [
          {
            "coding": [
              {
                "system": "http://terminology.hl7.org/CodeSystem/v3-ObservationInterpretation",
                "code": "A",
                "display": "Abnormal"
              }
            ],
            "text": "Abnormal"
          }
        ],
        "note": [
          {
            "text": "Definition: https://snomed.info/id/84229001"
          }
        ]
      },
      "request": {
        "method": "POST",
        "url": "Observation"
      }
    },
    {
      "fullUrl": "urn:uuid:8eb629a1-5eb9-4961-9a36-24c8da7de203",
      "resource": {
        "resourceType": "Observation",
        "id": "8eb629a1-5eb9-4961-9a36-24c8da7de203",
        "status": "final",
        "category": [
          {
            "coding": [
              {
                "system": "http://terminology.hl7.org/CodeSystem/observation-category",
                "code": "exam",
                "display": "Exam"
              }
            ],
            "text": "Exam"
          }
        ],
        "code": {
          "coding": [
            {
              "system": "http://snomed.info/sct",
              "code": "39575007",
              "display": "Urine looks dark"
            }
          ],
          "text": "Dark Urine"
        },
        "subject": {
          "reference": "Patient/ccbeaa26-2a90-4440-b9da-86f4f3bafdae"
        },
        "encounter": {
          "reference": "Encounter/6a647f70-40d3-47e3-82cc-16137dfe4904"
        },
        "effectivePeriod": {
          "start": "2025-10-16"
        },
        "valueBoolean": true,
        "interpretation": [
          {
            "coding": [
              {
                "system": "http://terminology.hl7.org/CodeSystem/v3-ObservationInterpretation",
                "code": "A",
                "display": "Abnormal"
              }
            ],
            "text": "Abnormal"
          }
        ],
        "note": [
          {
            "text": "Definition: https://snomed.info/id/39575007"
          }
        ]
      },
      "request": {
        "method": "POST",
        "url": "Observation"
      }
    },
    {
      "fullUrl": "urn:uuid:4472c423-65ce-4924-960b-7f8bf9bb75be",
      "resource": {
        "resourceType": "Observation",
        "id": "4472c423-65ce-4924-960b-7f8bf9bb75be",
        "status": "final",
        "category": [
          {
            "coding": [
              {
                "system": "http://terminology.hl7.org/CodeSystem/observation-category",
                "code": "vital-signs",
                "display": "Vital Signs"
              }
            ],
            "text": "Vital Signs"
          }
        ],
        "code": {
          "coding": [
            {
              "system": "http://loinc.org",
              "code": "8310-5",
              "display": "Body temperature"
            }
          ],
          "text": "temperature"
        },
        "subject": {
          "reference": "Patient/ccbeaa26-2a90-4440-b9da-86f4f3bafdae"
        },
        "encounter": {
          "reference": "Encounter/6a647f70-40d3-47e3-82cc-16137dfe4904"
        },
        "effectiveDateTime": "2025-10-16",
        "valueQuantity": {
          "value": 36.8,
          "unit": "degrees Celsius",
          "system": "http://unitsofmeasure.org",
          "code": "degrees Celsius"
        },
        "interpretation": [
          {
            "coding": [
              {
                "system": "http://terminology.hl7.org/CodeSystem/v3-ObservationInterpretation",
                "code": "N",
                "display": "Normal"
              }
            ],
            "text": "Normal"
          }
        ]
      },
      "request": {
        "method": "POST",
        "url": "Observation"
      }
    },
    {
      "fullUrl": "urn:uuid:2c0c1599-77e8-421a-8fc2-1884c8322ca9",
      "resource": {
        "resourceType": "Observation",
        "id": "2c0c1599-77e8-421a-8fc2-1884c8322ca9",
        "status": "final",
        "category": [
          {
            "coding": [
              {
                "system": "http://terminology.hl7.org/CodeSystem/observation-category",
                "code": "vital-signs",
                "display": "Vital Signs"
              }
            ],
            "text": "Vital Signs"
          }
        ],
        "code": {
          "coding": [
            {
              "system": "http://loinc.org",
              "code": "62733-1",
              "display": "PhenX - respiratory - pulse oximetry - rest protocol 091101"
            }
          ],
          "text": "pulse"
        },
        "subject": {
          "reference": "Patient/ccbeaa26-2a90-4440-b9da-86f4f3bafdae"
        },
        "encounter": {
          "reference": "Encounter/6a647f70-40d3-47e3-82cc-16137dfe4904"
        },
        "effectiveDateTime": "2025-10-16",
        "valueQuantity": {
          "value": 72.0,
          "unit": "beats per minute",
          "system": "http://unitsofmeasure.org",
          "code": "beats per minute"
        },
        "interpretation": [
          {
            "coding": [
              {
                "system": "http://terminology.hl7.org/CodeSystem/v3-ObservationInterpretation",
                "code": "N",
                "display": "Normal"
              }
            ],
            "text": "Normal"
          }
        ]
      },
      "request": {
        "method": "POST",
        "url": "Observation"
      }
    },
    {
      "fullUrl": "urn:uuid:ef20599d-a34f-4fcc-8f08-d342a322b1fd",
      "resource": {
        "resourceType": "Observation",
        "id": "ef20599d-a34f-4fcc-8f08-d342a322b1fd",
        "status": "final",
        "category": [
          {
            "coding": [
              {
                "system": "http://terminology.hl7.org/CodeSystem/observation-category",
                "code": "vital-signs",
                "display": "Vital Signs"
              }
            ],
            "text": "Vital Signs"
          }
        ],
        "code": {
          "coding": [
            {
              "system": "http://loinc.org",
              "code": "18684-1",
              "display": "Blood pressure"
            }
          ],
          "text": "blood pressure"
        },
        "subject": {
          "reference": "Patient/ccbeaa26-2a90-4440-b9da-86f4f3bafdae"
        },
        "encounter": {
          "reference": "Encounter/6a647f70-40d3-47e3-82cc-16137dfe4904"
        },
        "effectiveDateTime": "2025-10-16",
        "interpretation": [
          {
            "coding": [
              {
                "system": "http://terminology.hl7.org/CodeSystem/v3-ObservationInterpretation",
                "code": "N",
                "display": "Normal"
              }
            ],
            "text": "Normal"
          }
        ]
      },
      "request": {
        "method": "POST",
        "url": "Observation"
      }
    },
    {
      "fullUrl": "urn:uuid:f406ae97-a6b8-42b9-bd4d-8062c61ea73c",
      "resource": {
        "resourceType": "Observation",
        "id": "f406ae97-a6b8-42b9-bd4d-8062c61ea73c",
        "status": "final",
        "category": [
          {
            "coding": [
              {
                "system": "http://terminology.hl7.org/CodeSystem/observation-category",
                "code": "vital-signs",
                "display": "Vital Signs"
              }
            ],
            "text": "Vital Signs"
          }
        ],
        "code": {
          "coding": [
            {
              "system": "http://loinc.org",
              "code": "9279-1",
              "display": "Resp rate"
            }
          ],
          "text": "respiratory rate"
        },
        "subject": {
          "reference": "Patient/ccbeaa26-2a90-4440-b9da-86f4f3bafdae"
        },
        "encounter": {
          "reference": "Encounter/6a647f70-40d3-47e3-82cc-16137dfe4904"
        },
        "effectiveDateTime": "2025-10-16",
        "valueQuantity": {
          "value": 16.0,
          "unit": "breaths per minute",
          "system": "http://unitsofmeasure.org",
          "code": "breaths per minute"
        },
        "interpretation": [
          {
            "coding": [
              {
                "system": "http://terminology.hl7.org/CodeSystem/v3-ObservationInterpretation",
                "code": "N",
                "display": "Normal"
              }
            ],
            "text": "Normal"
          }
        ]
      },
      "request": {
        "method": "POST",
        "url": "Observation"
      }
    },
    {
      "fullUrl": "urn:uuid:9e302754-87ed-422a-9a61-610775932241",
      "resource": {
        "resourceType": "Observation",
        "id": "9e302754-87ed-422a-9a61-610775932241",
        "status": "final",
        "category": [
          {
            "coding": [
              {
                "system": "http://terminology.hl7.org/CodeSystem/observation-category",
                "code": "vital-signs",
                "display": "Vital Signs"
              }
            ],
            "text": "Vital Signs"
          }
        ],
        "code": {
          "coding": [
            {
              "system": "http://loinc.org",
              "code": "2717-7",
              "display": "OxyHgb MFr Plas"
            }
          ],
          "text": "oxygen saturation"
        },
        "subject": {
          "reference": "Patient/ccbeaa26-2a90-4440-b9da-86f4f3bafdae"
        },
        "encounter": {
          "reference": "Encounter/6a647f70-40d3-47e3-82cc-16137dfe4904"
        },
        "effectiveDateTime": "2025-10-16",
        "valueQuantity": {
          "value": 98.0,
          "unit": "%",
          "system": "http://unitsofmeasure.org",
          "code": "%"
        },
        "interpretation": [
          {
            "coding": [
              {
                "system": "http://terminology.hl7.org/CodeSystem/v3-ObservationInterpretation",
                "code": "N",
                "display": "Normal"
              }
            ],
            "text": "Normal"
          }
        ]
      },
      "request": {
        "method": "POST",
        "url": "Observation"
      }
    },
    {
      "fullUrl": "urn:uuid:ac590b3e-dec5-4f2f-be9d-bc704d1f2d33",
      "resource": {
        "resourceType": "MedicationStatement",
        "id": "ac590b3e-dec5-4f2f-be9d-bc704d1f2d33",
        "status": "recorded",
        "medication": {
          "concept": {
            "coding": [
              {
                "system": "http://snomed.info/sct",
                "code": "412250002",
                "display": "Multivitamin agent"
              }
            ],
            "text": "Multivitamin"
          }
        },
        "subject": {
          "reference": "Patient/ccbeaa26-2a90-4440-b9da-86f4f3bafdae"
        },
        "encounter": {
          "reference": "Encounter/6a647f70-40d3-47e3-82cc-16137dfe4904"
        },
        "effectiveDateTime": "2025-10-16",
        "informationSource": [
          {
            "reference": "Patient/ccbeaa26-2a90-4440-b9da-86f4f3bafdae"
          }
        ],
        "dosage": [
          {
            "text": "once daily",
            "timing": {
              "repeat": {
                "frequency": 1,
                "period": 1.0,
                "periodUnit": "d"
              }
            }
          }
        ]
      },
      "request": {
        "method": "POST",
        "url": "MedicationStatement"
      }
    },
    {
      "fullUrl": "urn:uuid:0deb2d49-da78-4eed-8a11-c245899a089e",
      "resource": {
        "resourceType": "MedicationStatement",
        "id": "0deb2d49-da78-4eed-8a11-c245899a089e",
        "status": "recorded",
        "medication": {
          "concept": {
            "coding": [
              {
                "system": "http://snomed.info/sct",
                "code": "72354005",
                "display": "Oral contraceptive intolerance"
              }
            ],
            "text": "Oral Contraceptive"
          }
        },
        "subject": {
          "reference": "Patient/ccbeaa26-2a90-4440-b9da-86f4f3bafdae"
        },
        "encounter": {
          "reference": "Encounter/6a647f70-40d3-47e3-82cc-16137dfe4904"
        },
        "effectiveDateTime": "2025-10-16",
        "informationSource": [
          {
            "reference": "Patient/ccbeaa26-2a90-4440-b9da-86f4f3bafdae"
          }
        ]
      },
      "request": {
        "method": "POST",
        "url": "MedicationStatement"
      }
    },
    {
      "fullUrl": "urn:uuid:77b76194-dd7b-407d-860f-83156a7affaf",
      "resource": {
        "resourceType": "Encounter",
        "id": "77b76194-dd7b-407d-860f-83156a7affaf",
        "identifier": [
          {
            "use": "temp",
            "value": "Encounter_Sophia Patel_20251023095751"
          }
        ],
        "status": "completed",
        "priority": {
          "coding": [
            {
              "system": "http://snomed.info/sct",
              "code": "17621005",
              "display": "Normal"
            }
          ]
        },
        "type": [
          {
            "coding": [
              {
                "system": "http://snomed.info/sct",
                "code": "11429006",
                "display": "Consultation"
              }
            ]
          }
        ],
        "subject": {
          "reference": "Patient/ccbeaa26-2a90-4440-b9da-86f4f3bafdae",
          "display": "Sophia Patel"
        },
        "reason": [
          {
            "value": [
              {
                "concept": {
                  "text": "similar symptoms of fatigue and dark urine"
                }
              }
            ]
          }
        ]
      },
      "request": {
        "method": "POST",
        "url": "Encounter"
      }
    },
    {
      "fullUrl": "urn:uuid:0d9c0314-f4d8-427a-807c-839e38e91e98",
      "resource": {
        "resourceType": "Observation",
        "id": "0d9c0314-f4d8-427a-807c-839e38e91e98",
        "status": "final",
        "category": [
          {
            "coding": [
              {
                "system": "http://terminology.hl7.org/CodeSystem/observation-category",
                "code": "laboratory",
                "display": "Laboratory"
              }
            ],
            "text": "Laboratory"
          }
        ],
        "code": {
          "coding": [
            {
              "system": "http://loinc.org",
              "code": "62854-5",
              "display": "PhenX - glycosylated hemoglobin assay reflecting long-term glucose concentration protocol 140901"
            }
          ],
          "text": "Hemoglobin"
        },
        "subject": {
          "reference": "Patient/ccbeaa26-2a90-4440-b9da-86f4f3bafdae"
        },
        "encounter": {
          "reference": "Encounter/77b76194-dd7b-407d-860f-83156a7affaf"
        },
        "effectiveDateTime": "2025-07-16",
        "valueQuantity": {
          "value": 11.8,
          "unit": "g/dL",
          "system": "http://unitsofmeasure.org",
          "code": "g/dL"
        },
        "note": [
          {
            "text": "Definition: https://loinc.org/62854-5/"
          }
        ]
      },
      "request": {
        "method": "POST",
        "url": "Observation"
      }
    },
    {
      "fullUrl": "urn:uuid:d633db45-4a84-4a0f-bfdc-bd52c0f83805",
      "resource": {
        "resourceType": "Observation",
        "id": "d633db45-4a84-4a0f-bfdc-bd52c0f83805",
        "status": "final",
        "category": [
          {
            "coding": [
              {
                "system": "http://terminology.hl7.org/CodeSystem/observation-category",
                "code": "exam",
                "display": "Exam"
              }
            ],
            "text": "Exam"
          }
        ],
        "code": {
          "coding": [
            {
              "system": "http://snomed.info/sct",
              "code": "84229001",
              "display": "Fatigue"
            }
          ],
          "text": "Fatigue"
        },
        "subject": {
          "reference": "Patient/ccbeaa26-2a90-4440-b9da-86f4f3bafdae"
        },
        "encounter": {
          "reference": "Encounter/77b76194-dd7b-407d-860f-83156a7affaf"
        },
        "effectivePeriod": {
          "start": "2025-07-16"
        },
        "valueBoolean": true,
        "interpretation": [
          {
            "coding": [
              {
                "system": "http://terminology.hl7.org/CodeSystem/v3-ObservationInterpretation",
                "code": "A",
                "display": "Abnormal"
              }
            ],
            "text": "Abnormal"
          }
        ],
        "note": [
          {
            "text": "Definition: https://snomed.info/id/84229001"
          }
        ]
      },
      "request": {
        "method": "POST",
        "url": "Observation"
      }
    },
    {
      "fullUrl": "urn:uuid:0a03593b-9219-4ea7-b560-ad30480a1197",
      "resource": {
        "resourceType": "Observation",
        "id": "0a03593b-9219-4ea7-b560-ad30480a1197",
        "status": "final",
        "category": [
          {
            "coding": [
              {
                "system": "http://terminology.hl7.org/CodeSystem/observation-category",
                "code": "exam",
                "display": "Exam"
              }
            ],
            "text": "Exam"
          }
        ],
        "code": {
          "coding": [
            {
              "system": "http://snomed.info/sct",
              "code": "39575007",
              "display": "Urine looks dark"
            }
          ],
          "text": "Dark Urine"
        },
        "subject": {
          "reference": "Patient/ccbeaa26-2a90-4440-b9da-86f4f3bafdae"
        },
        "encounter": {
          "reference": "Encounter/77b76194-dd7b-407d-860f-83156a7affaf"
        },
        "effectivePeriod": {
          "start": "2025-07-16"
        },
        "valueBoolean": true,
        "interpretation": [
          {
            "coding": [
              {
                "system": "http://terminology.hl7.org/CodeSystem/v3-ObservationInterpretation",
                "code": "A",
                "display": "Abnormal"
              }
            ],
            "text": "Abnormal"
          }
        ],
        "note": [
          {
            "text": "Definition: https://snomed.info/id/39575007"
          }
        ]
      },
      "request": {
        "method": "POST",
        "url": "Observation"
      }
    },
    {
      "fullUrl": "urn:uuid:2ae44e7d-5f97-4f63-93c7-4eb24044922e",
      "resource": {
        "resourceType": "List",
        "id": "2ae44e7d-5f97-4f63-93c7-4eb24044922e",
        "contained": [
          {
            "resourceType": "FamilyMemberHistory",
            "id": "fmh-3",
            "status": "completed",
            "patient": {
              "reference": "Patient/ccbeaa26-2a90-4440-b9da-86f4f3bafdae"
            },
            "relationship": {
              "coding": [
                {
                  "system": "http://snomed.info/sct",
                  "code": "70924004",
                  "display": "Brother"
                }
              ]
            },
            "deceasedBoolean": false,
            "condition": [
              {
                "code": {
                  "coding": [
                    {
                      "system": "http://snomed.info/sct",
                      "code": "40930008",
                      "display": "Hypothyroidism"
                    }
                  ]
                }
              }
            ]
          }
        ],
        "status": "current",
        "mode": "snapshot",
        "code": {
          "coding": [
            {
              "system": "http://loinc.org",
              "code": "8670-2",
              "display": "History of family member diseases"
            }
          ]
        },
        "subject": [
          {
            "reference": "Patient/ccbeaa26-2a90-4440-b9da-86f4f3bafdae"
          }
        ],
        "note": [
          {
            "text": "Both parents are alive and healthy, with no known chronic medical conditions."
          }
        ],
        "entry": [
          {
            "item": {
              "reference": "#fmh-3"
            }
          }
        ]
      },
      "request": {
        "method": "POST",
        "url": "FamilyMemberHistory"
      }
    }
  ]
}