{
  "resourceType": "Bundle",
  "type": "transaction",
  "entry": [
    {
      "fullUrl": "urn:uuid:5649d71e-4c73-40df-a649-05c5e85b16a7",
      "resource": {
        "resourceType": "Patient",
        "id": "5649d71e-4c73-40df-a649-05c5e85b16a7",
        "name": [
          {
            "family": "Lebedev",
            "given": [
              "Andrei"
            ]
          }
        ],
        "gender": "male",
        "birthDate": "2010-07-12",
        "address": [
          {}
        ]
      },
      "request": {
        "method": "POST",
        "url": "Patient"
      }
    },
    {
      "fullUrl": "urn:uuid:9abe20d2-aa26-4e34-b118-a5629b495207",
      "resource": {
        "resourceType": "Encounter",
        "id": "9abe20d2-aa26-4e34-b118-a5629b495207",
        "identifier": [
          {
            "use": "temp",
            "value": "Encounter_Andrei Lebedev_20251023103426"
          }
        ],
        "status": "completed",
        "priority": {
          "coding": [
            {
              "system": "http://snomed.info/sct",
              "code": "17621005",
              "display": "Normal"
            }
          ]
        },
        "type": [
          {
            "coding": [
              {
                "system": "http://snomed.info/sct",
                "code": "11429006",
                "display": "Consultation"
              }
            ]
          }
        ],
        "subject": {
          "reference": "Patient/5649d71e-4c73-40df-a649-05c5e85b16a7",
          "display": "Andrei Lebedev"
        },
        "reason": [
          {
            "value": [
              {
                "concept": {
                  "text": "recurrent evening fevers and joint pain"
                }
              }
            ]
          }
        ]
      },
      "request": {
        "method": "POST",
        "url": "Encounter"
      }
    },
    {
      "fullUrl": "urn:uuid:d63a5343-501d-4631-9cb0-e792ecf8208f",
      "resource": {
        "resourceType": "Observation",
        "id": "d63a5343-501d-4631-9cb0-e792ecf8208f",
        "status": "final",
        "category": [
          {
            "coding": [
              {
                "system": "http://terminology.hl7.org/CodeSystem/observation-category",
                "code": "laboratory",
                "display": "Laboratory"
              }
            ],
            "text": "Laboratory"
          }
        ],
        "code": {
          "coding": [
            {
              "system": "http://loinc.org",
              "code": "26464-8",
              "display": "WBC # Bld"
            }
          ],
          "text": "White Blood Cell Count"
        },
        "subject": {
          "reference": "Patient/5649d71e-4c73-40df-a649-05c5e85b16a7"
        },
        "encounter": {
          "reference": "Encounter/9abe20d2-aa26-4e34-b118-a5629b495207"
        },
        "effectiveDateTime": "2025-10-16",
        "valueQuantity": {
          "value": 14.2,
          "unit": "10^9/L",
          "system": "http://unitsofmeasure.org",
          "code": "10^9/L"
        },
        "interpretation": [
          {
            "coding": [
              {
                "system": "http://terminology.hl7.org/CodeSystem/v3-ObservationInterpretation",
                "code": "H",
                "display": "High"
              }
            ]
          }
        ],
        "note": [
          {
            "text": "Definition: https://loinc.org/26464-8/"
          }
        ]
      },
      "request": {
        "method": "POST",
        "url": "Observation"
      }
    },
    {
      "fullUrl": "urn:uuid:dc096583-ad6a-4c46-a378-f9ccd75ea24f",
      "resource": {
        "resourceType": "Observation",
        "id": "dc096583-ad6a-4c46-a378-f9ccd75ea24f",
        "status": "final",
        "category": [
          {
            "coding": [
              {
                "system": "http://terminology.hl7.org/CodeSystem/observation-category",
                "code": "laboratory",
                "display": "Laboratory"
              }
            ],
            "text": "Laboratory"
          }
        ],
        "code": {
          "coding": [
            {
              "system": "http://loinc.org",
              "code": "30341-2",
              "display": "Erythrocyte Sed Rat Bld"
            }
          ],
          "text": "Erythrocyte Sedimentation Rate"
        },
        "subject": {
          "reference": "Patient/5649d71e-4c73-40df-a649-05c5e85b16a7"
        },
        "encounter": {
          "reference": "Encounter/9abe20d2-aa26-4e34-b118-a5629b495207"
        },
        "effectiveDateTime": "2025-10-16",
        "valueQuantity": {
          "value": 48.0,
          "unit": "mm/h",
          "system": "http://unitsofmeasure.org",
          "code": "mm/h"
        },
        "interpretation": [
          {
            "coding": [
              {
                "system": "http://terminology.hl7.org/CodeSystem/v3-ObservationInterpretation",
                "code": "H",
                "display": "High"
              }
            ]
          }
        ],
        "note": [
          {
            "text": "Definition: https://loinc.org/30341-2/"
          }
        ]
      },
      "request": {
        "method": "POST",
        "url": "Observation"
      }
    },
    {
      "fullUrl": "urn:uuid:67d9eb3a-7ff9-4e59-89a8-9e4599a648a5",
      "resource": {
        "resourceType": "Observation",
        "id": "67d9eb3a-7ff9-4e59-89a8-9e4599a648a5",
        "status": "final",
        "category": [
          {
            "coding": [
              {
                "system": "http://terminology.hl7.org/CodeSystem/observation-category",
                "code": "laboratory",
                "display": "Laboratory"
              }
            ],
            "text": "Laboratory"
          }
        ],
        "code": {
          "coding": [
            {
              "system": "http://loinc.org",
              "code": "1917-4",
              "display": "AST Amn-cCnc"
            }
          ],
          "text": "Transaminase"
        },
        "subject": {
          "reference": "Patient/5649d71e-4c73-40df-a649-05c5e85b16a7"
        },
        "encounter": {
          "reference": "Encounter/9abe20d2-aa26-4e34-b118-a5629b495207"
        },
        "effectiveDateTime": "2025-10-16",
        "interpretation": [
          {
            "coding": [
              {
                "system": "http://terminology.hl7.org/CodeSystem/v3-ObservationInterpretation",
                "code": "A",
                "display": "Abnormal"
              }
            ]
          }
        ],
        "note": [
          {
            "text": "Definition: https://loinc.org/1917-4/"
          }
        ]
      },
      "request": {
        "method": "POST",
        "url": "Observation"
      }
    },
    {
      "fullUrl": "urn:uuid:3f6b68fd-72ae-4a1c-979c-253ed060a40d",
      "resource": {
        "resourceType": "Observation",
        "id": "3f6b68fd-72ae-4a1c-979c-253ed060a40d",
        "status": "final",
        "category": [
          {
            "coding": [
              {
                "system": "http://terminology.hl7.org/CodeSystem/observation-category",
                "code": "exam",
                "display": "Exam"
              }
            ],
            "text": "Exam"
          }
        ],
        "code": {
          "coding": [
            {
              "system": "http://snomed.info/sct",
              "code": "386661006",
              "display": "Fever"
            }
          ],
          "text": "Fever"
        },
        "subject": {
          "reference": "Patient/5649d71e-4c73-40df-a649-05c5e85b16a7"
        },
        "encounter": {
          "reference": "Encounter/9abe20d2-aa26-4e34-b118-a5629b495207"
        },
        "effectivePeriod": {
          "start": "2025-10-16"
        },
        "valueBoolean": true,
        "interpretation": [
          {
            "coding": [
              {
                "system": "http://terminology.hl7.org/CodeSystem/v3-ObservationInterpretation",
                "code": "H",
                "display": "High"
              }
            ],
            "text": "High"
          }
        ],
        "note": [
          {
            "text": "Definition: https://snomed.info/id/386661006"
          }
        ]
      },
      "request": {
        "method": "POST",
        "url": "Observation"
      }
    },
    {
      "fullUrl": "urn:uuid:1b8026c7-68e9-46ff-8d49-9537e42ee861",
      "resource": {
        "resourceType": "Observation",
        "id": "1b8026c7-68e9-46ff-8d49-9537e42ee861",
        "status": "final",
        "category": [
          {
            "coding": [
              {
                "system": "http://terminology.hl7.org/CodeSystem/observation-category",
                "code": "exam",
                "display": "Exam"
              }
            ],
            "text": "Exam"
          }
        ],
        "code": {
          "coding": [
            {
              "system": "http://snomed.info/sct",
              "code": "57676002",
              "display": "Joint pain"
            }
          ],
          "text": "Joint Pain"
        },
        "subject": {
          "reference": "Patient/5649d71e-4c73-40df-a649-05c5e85b16a7"
        },
        "encounter": {
          "reference": "Encounter/9abe20d2-aa26-4e34-b118-a5629b495207"
        },
        "effectivePeriod": {
          "start": "2025-10-16"
        },
        "valueBoolean": true,
        "note": [
          {
            "text": "Definition: https://snomed.info/id/57676002"
          }
        ]
      },
      "request": {
        "method": "POST",
        "url": "Observation"
      }
    },
    {
      "fullUrl": "urn:uuid:47d3b862-cc93-4e69-96bb-71a4fc5731df",
      "resource": {
        "resourceType": "Observation",
        "id": "47d3b862-cc93-4e69-96bb-71a4fc5731df",
        "status": "final",
        "category": [
          {
            "coding": [
              {
                "system": "http://terminology.hl7.org/CodeSystem/observation-category",
                "code": "exam",
                "display": "Exam"
              }
            ],
            "text": "Exam"
          }
        ],
        "code": {
          "coding": [
            {
              "system": "http://snomed.info/sct",
              "code": "89757007",
              "display": "Macular rash"
            }
          ],
          "text": "Rash"
        },
        "subject": {
          "reference": "Patient/5649d71e-4c73-40df-a649-05c5e85b16a7"
        },
        "encounter": {
          "reference": "Encounter/9abe20d2-aa26-4e34-b118-a5629b495207"
        },
        "effectivePeriod": {
          "start": "2025-10-16"
        },
        "valueBoolean": true,
        "note": [
          {
            "text": "Definition: https://snomed.info/id/89757007"
          }
        ]
      },
      "request": {
        "method": "POST",
        "url": "Observation"
      }
    },
    {
      "fullUrl": "urn:uuid:a5b3568a-5f63-438c-82d0-60352897333e",
      "resource": {
        "resourceType": "Observation",
        "id": "a5b3568a-5f63-438c-82d0-60352897333e",
        "status": "final",
        "category": [
          {
            "coding": [
              {
                "system": "http://terminology.hl7.org/CodeSystem/observation-category",
                "code": "vital-signs",
                "display": "Vital Signs"
              }
            ],
            "text": "Vital Signs"
          }
        ],
        "code": {
          "coding": [
            {
              "system": "http://loinc.org",
              "code": "8310-5",
              "display": "Body temperature"
            }
          ],
          "text": "Body Temperature"
        },
        "subject": {
          "reference": "Patient/5649d71e-4c73-40df-a649-05c5e85b16a7"
        },
        "encounter": {
          "reference": "Encounter/9abe20d2-aa26-4e34-b118-a5629b495207"
        },
        "effectiveDateTime": "2025-10-16",
        "valueQuantity": {
          "value": 38.2,
          "unit": "°C",
          "system": "http://unitsofmeasure.org",
          "code": "°C"
        },
        "interpretation": [
          {
            "coding": [
              {
                "system": "http://terminology.hl7.org/CodeSystem/v3-ObservationInterpretation",
                "code": "H",
                "display": "High"
              }
            ],
            "text": "High"
          }
        ]
      },
      "request": {
        "method": "POST",
        "url": "Observation"
      }
    },
    {
      "fullUrl": "urn:uuid:4fb40c8c-a446-4317-9cd8-c7b2c7fe1076",
      "resource": {
        "resourceType": "Observation",
        "id": "4fb40c8c-a446-4317-9cd8-c7b2c7fe1076",
        "status": "final",
        "category": [
          {
            "coding": [
              {
                "system": "http://terminology.hl7.org/CodeSystem/observation-category",
                "code": "vital-signs",
                "display": "Vital Signs"
              }
            ],
            "text": "Vital Signs"
          }
        ],
        "code": {
          "coding": [
            {
              "system": "http://loinc.org",
              "code": "62733-1",
              "display": "PhenX - respiratory - pulse oximetry - rest protocol 091101"
            }
          ],
          "text": "Pulse"
        },
        "subject": {
          "reference": "Patient/5649d71e-4c73-40df-a649-05c5e85b16a7"
        },
        "encounter": {
          "reference": "Encounter/9abe20d2-aa26-4e34-b118-a5629b495207"
        },
        "effectiveDateTime": "2025-10-16",
        "valueQuantity": {
          "value": 90.0,
          "unit": "bpm",
          "system": "http://unitsofmeasure.org",
          "code": "bpm"
        }
      },
      "request": {
        "method": "POST",
        "url": "Observation"
      }
    },
    {
      "fullUrl": "urn:uuid:785fe4d0-4ec2-406d-863f-9142f4ef1ede",
      "resource": {
        "resourceType": "List",
        "id": "785fe4d0-4ec2-406d-863f-9142f4ef1ede",
        "contained": [
          {
            "resourceType": "FamilyMemberHistory",
            "id": "fmh-2",
            "status": "completed",
            "patient": {
              "reference": "Patient/5649d71e-4c73-40df-a649-05c5e85b16a7"
            },
            "relationship": {
              "coding": [
                {
                  "system": "http://snomed.info/sct",
                  "code": "66839005",
                  "display": "Father"
                }
              ]
            },
            "deceasedBoolean": false,
            "condition": []
          }
        ],
        "status": "current",
        "mode": "snapshot",
        "code": {
          "coding": [
            {
              "system": "http://loinc.org",
              "code": "8670-2",
              "display": "History of family member diseases"
            }
          ]
        },
        "subject": [
          {
            "reference": "Patient/5649d71e-4c73-40df-a649-05c5e85b16a7"
          }
        ],
        "entry": [
          {
            "item": {
              "reference": "#fmh-2"
            }
          }
        ]
      },
      "request": {
        "method": "POST",
        "url": "FamilyMemberHistory"
      }
    }
  ]
}