{
  "resourceType": "Bundle",
  "type": "transaction",
  "entry": [
    {
      "fullUrl": "urn:uuid:0a078d5c-e89b-4543-b3ba-33c7801d9f4c",
      "resource": {
        "resourceType": "Patient",
        "id": "0a078d5c-e89b-4543-b3ba-33c7801d9f4c",
        "name": [
          {
            "family": "Mikhailova",
            "given": [
              "Olga"
            ]
          }
        ],
        "gender": "female",
        "birthDate": "1997-01-01",
        "address": [
          {}
        ]
      },
      "request": {
        "method": "POST",
        "url": "Patient"
      }
    },
    {
      "fullUrl": "urn:uuid:bb576f89-9deb-4cd6-b6ae-5b264f50846a",
      "resource": {
        "resourceType": "Encounter",
        "id": "bb576f89-9deb-4cd6-b6ae-5b264f50846a",
        "identifier": [
          {
            "use": "temp",
            "value": "Encounter_Olga Mikhailova_20251023103414"
          }
        ],
        "status": "completed",
        "priority": {
          "coding": [
            {
              "system": "http://snomed.info/sct",
              "code": "17621005",
              "display": "Normal"
            }
          ]
        },
        "type": [
          {
            "coding": [
              {
                "system": "http://snomed.info/sct",
                "code": "11429006",
                "display": "Consultation"
              }
            ]
          }
        ],
        "subject": {
          "reference": "Patient/0a078d5c-e89b-4543-b3ba-33c7801d9f4c",
          "display": "Olga Mikhailova"
        },
        "reason": [
          {
            "value": [
              {
                "concept": {
                  "text": "intermittent high fevers for two weeks"
                }
              }
            ]
          }
        ]
      },
      "request": {
        "method": "POST",
        "url": "Encounter"
      }
    },
    {
      "fullUrl": "urn:uuid:f4c55d95-7695-423a-8297-fea0812c4b7b",
      "resource": {
        "resourceType": "Observation",
        "id": "f4c55d95-7695-423a-8297-fea0812c4b7b",
        "status": "final",
        "category": [
          {
            "coding": [
              {
                "system": "http://terminology.hl7.org/CodeSystem/observation-category",
                "code": "laboratory",
                "display": "Laboratory"
              }
            ],
            "text": "Laboratory"
          }
        ],
        "code": {
          "coding": [
            {
              "system": "http://loinc.org",
              "code": "unknown",
              "display": "Leukocytosis"
            }
          ],
          "text": "Leukocytosis"
        },
        "subject": {
          "reference": "Patient/0a078d5c-e89b-4543-b3ba-33c7801d9f4c"
        },
        "encounter": {
          "reference": "Encounter/bb576f89-9deb-4cd6-b6ae-5b264f50846a"
        },
        "effectiveDateTime": "2025-10-16",
        "valueQuantity": {
          "value": 13.5,
          "unit": "×10⁹/L",
          "system": "http://unitsofmeasure.org",
          "code": "×10⁹/L"
        },
        "interpretation": [
          {
            "coding": [
              {
                "system": "http://terminology.hl7.org/CodeSystem/v3-ObservationInterpretation",
                "code": "H",
                "display": "High"
              }
            ]
          }
        ]
      },
      "request": {
        "method": "POST",
        "url": "Observation"
      }
    },
    {
      "fullUrl": "urn:uuid:74dd1e43-1fa3-4f2d-8b5d-a32ce61b7894",
      "resource": {
        "resourceType": "Observation",
        "id": "74dd1e43-1fa3-4f2d-8b5d-a32ce61b7894",
        "status": "final",
        "category": [
          {
            "coding": [
              {
                "system": "http://terminology.hl7.org/CodeSystem/observation-category",
                "code": "laboratory",
                "display": "Laboratory"
              }
            ],
            "text": "Laboratory"
          }
        ],
        "code": {
          "coding": [
            {
              "system": "http://loinc.org",
              "code": "71426-1",
              "display": "CRP Bld HS-mCnc"
            }
          ],
          "text": "CRP"
        },
        "subject": {
          "reference": "Patient/0a078d5c-e89b-4543-b3ba-33c7801d9f4c"
        },
        "encounter": {
          "reference": "Encounter/bb576f89-9deb-4cd6-b6ae-5b264f50846a"
        },
        "effectiveDateTime": "2025-10-16",
        "valueQuantity": {
          "value": 35.0,
          "unit": "mg/L",
          "system": "http://unitsofmeasure.org",
          "code": "mg/L"
        },
        "interpretation": [
          {
            "coding": [
              {
                "system": "http://terminology.hl7.org/CodeSystem/v3-ObservationInterpretation",
                "code": "H",
                "display": "High"
              }
            ]
          }
        ],
        "note": [
          {
            "text": "Definition: https://loinc.org/71426-1/"
          }
        ]
      },
      "request": {
        "method": "POST",
        "url": "Observation"
      }
    },
    {
      "fullUrl": "urn:uuid:8897eadd-76cb-4303-96e9-1af79358fa4e",
      "resource": {
        "resourceType": "Observation",
        "id": "8897eadd-76cb-4303-96e9-1af79358fa4e",
        "status": "final",
        "category": [
          {
            "coding": [
              {
                "system": "http://terminology.hl7.org/CodeSystem/observation-category",
                "code": "exam",
                "display": "Exam"
              }
            ],
            "text": "Exam"
          }
        ],
        "code": {
          "coding": [
            {
              "system": "http://snomed.info/sct",
              "code": "386661006",
              "display": "Fever"
            }
          ],
          "text": "Fever"
        },
        "subject": {
          "reference": "Patient/0a078d5c-e89b-4543-b3ba-33c7801d9f4c"
        },
        "encounter": {
          "reference": "Encounter/bb576f89-9deb-4cd6-b6ae-5b264f50846a"
        },
        "effectivePeriod": {
          "start": "2025-10-16"
        },
        "valueBoolean": true,
        "interpretation": [
          {
            "coding": [
              {
                "system": "http://terminology.hl7.org/CodeSystem/v3-ObservationInterpretation",
                "code": "H",
                "display": "High"
              }
            ],
            "text": "High"
          }
        ],
        "note": [
          {
            "text": "Definition: https://snomed.info/id/386661006"
          }
        ]
      },
      "request": {
        "method": "POST",
        "url": "Observation"
      }
    },
    {
      "fullUrl": "urn:uuid:0cd45f02-aa28-4caa-901d-c5674b31ddc4",
      "resource": {
        "resourceType": "Observation",
        "id": "0cd45f02-aa28-4caa-901d-c5674b31ddc4",
        "status": "final",
        "category": [
          {
            "coding": [
              {
                "system": "http://terminology.hl7.org/CodeSystem/observation-category",
                "code": "exam",
                "display": "Exam"
              }
            ],
            "text": "Exam"
          }
        ],
        "code": {
          "coding": [
            {
              "system": "http://snomed.info/sct",
              "code": "267102003",
              "display": "Sore throat"
            }
          ],
          "text": "Sore throat"
        },
        "subject": {
          "reference": "Patient/0a078d5c-e89b-4543-b3ba-33c7801d9f4c"
        },
        "encounter": {
          "reference": "Encounter/bb576f89-9deb-4cd6-b6ae-5b264f50846a"
        },
        "effectivePeriod": {
          "start": "2025-10-16"
        },
        "valueBoolean": true,
        "note": [
          {
            "text": "Definition: https://snomed.info/id/267102003"
          }
        ]
      },
      "request": {
        "method": "POST",
        "url": "Observation"
      }
    },
    {
      "fullUrl": "urn:uuid:d83a6e54-483d-4299-b39e-05668d57c566",
      "resource": {
        "resourceType": "Observation",
        "id": "d83a6e54-483d-4299-b39e-05668d57c566",
        "status": "final",
        "category": [
          {
            "coding": [
              {
                "system": "http://terminology.hl7.org/CodeSystem/observation-category",
                "code": "exam",
                "display": "Exam"
              }
            ],
            "text": "Exam"
          }
        ],
        "code": {
          "coding": [
            {
              "system": "http://snomed.info/sct",
              "code": "82991003",
              "display": "Generalized aches and pains"
            }
          ],
          "text": "Generalized body aches"
        },
        "subject": {
          "reference": "Patient/0a078d5c-e89b-4543-b3ba-33c7801d9f4c"
        },
        "encounter": {
          "reference": "Encounter/bb576f89-9deb-4cd6-b6ae-5b264f50846a"
        },
        "effectivePeriod": {
          "start": "2025-10-16"
        },
        "valueBoolean": true,
        "note": [
          {
            "text": "Definition: https://snomed.info/id/82991003"
          }
        ]
      },
      "request": {
        "method": "POST",
        "url": "Observation"
      }
    },
    {
      "fullUrl": "urn:uuid:31f72652-3565-4a47-af50-77a6a751cb87",
      "resource": {
        "resourceType": "Observation",
        "id": "31f72652-3565-4a47-af50-77a6a751cb87",
        "status": "final",
        "category": [
          {
            "coding": [
              {
                "system": "http://terminology.hl7.org/CodeSystem/observation-category",
                "code": "exam",
                "display": "Exam"
              }
            ],
            "text": "Exam"
          }
        ],
        "code": {
          "coding": [
            {
              "system": "http://snomed.info/sct",
              "code": "89757007",
              "display": "Macular rash"
            }
          ],
          "text": "Pinkish rash"
        },
        "subject": {
          "reference": "Patient/0a078d5c-e89b-4543-b3ba-33c7801d9f4c"
        },
        "encounter": {
          "reference": "Encounter/bb576f89-9deb-4cd6-b6ae-5b264f50846a"
        },
        "effectivePeriod": {
          "start": "2025-10-16"
        },
        "valueBoolean": true,
        "note": [
          {
            "text": "Definition: https://snomed.info/id/89757007"
          }
        ]
      },
      "request": {
        "method": "POST",
        "url": "Observation"
      }
    },
    {
      "fullUrl": "urn:uuid:c0e99780-c280-452c-871f-fb5b57dd5575",
      "resource": {
        "resourceType": "Observation",
        "id": "c0e99780-c280-452c-871f-fb5b57dd5575",
        "status": "final",
        "category": [
          {
            "coding": [
              {
                "system": "http://terminology.hl7.org/CodeSystem/observation-category",
                "code": "vital-signs",
                "display": "Vital Signs"
              }
            ],
            "text": "Vital Signs"
          }
        ],
        "code": {
          "coding": [
            {
              "system": "http://loinc.org",
              "code": "8310-5",
              "display": "Body temperature"
            }
          ],
          "text": "temperature"
        },
        "subject": {
          "reference": "Patient/0a078d5c-e89b-4543-b3ba-33c7801d9f4c"
        },
        "encounter": {
          "reference": "Encounter/bb576f89-9deb-4cd6-b6ae-5b264f50846a"
        },
        "effectiveDateTime": "2025-10-16",
        "valueQuantity": {
          "value": 38.7,
          "unit": "°C",
          "system": "http://unitsofmeasure.org",
          "code": "°C"
        },
        "interpretation": [
          {
            "coding": [
              {
                "system": "http://terminology.hl7.org/CodeSystem/v3-ObservationInterpretation",
                "code": "H",
                "display": "High"
              }
            ],
            "text": "High"
          }
        ]
      },
      "request": {
        "method": "POST",
        "url": "Observation"
      }
    },
    {
      "fullUrl": "urn:uuid:34662489-5b19-4f22-9f7d-62d491c5d095",
      "resource": {
        "resourceType": "Observation",
        "id": "34662489-5b19-4f22-9f7d-62d491c5d095",
        "status": "final",
        "category": [
          {
            "coding": [
              {
                "system": "http://terminology.hl7.org/CodeSystem/observation-category",
                "code": "vital-signs",
                "display": "Vital Signs"
              }
            ],
            "text": "Vital Signs"
          }
        ],
        "code": {
          "coding": [
            {
              "system": "http://loinc.org",
              "code": "62733-1",
              "display": "PhenX - respiratory - pulse oximetry - rest protocol 091101"
            }
          ],
          "text": "pulse"
        },
        "subject": {
          "reference": "Patient/0a078d5c-e89b-4543-b3ba-33c7801d9f4c"
        },
        "encounter": {
          "reference": "Encounter/bb576f89-9deb-4cd6-b6ae-5b264f50846a"
        },
        "effectiveDateTime": "2025-10-16",
        "valueQuantity": {
          "value": 96.0,
          "unit": "bpm",
          "system": "http://unitsofmeasure.org",
          "code": "bpm"
        }
      },
      "request": {
        "method": "POST",
        "url": "Observation"
      }
    },
    {
      "fullUrl": "urn:uuid:8304a821-21ee-48e5-8c5e-99c66070a37f",
      "resource": {
        "resourceType": "Observation",
        "id": "8304a821-21ee-48e5-8c5e-99c66070a37f",
        "status": "final",
        "category": [
          {
            "coding": [
              {
                "system": "http://terminology.hl7.org/CodeSystem/observation-category",
                "code": "vital-signs",
                "display": "Vital Signs"
              }
            ],
            "text": "Vital Signs"
          }
        ],
        "code": {
          "coding": [
            {
              "system": "http://loinc.org",
              "code": "18684-1",
              "display": "Blood pressure"
            }
          ],
          "text": "blood pressure"
        },
        "subject": {
          "reference": "Patient/0a078d5c-e89b-4543-b3ba-33c7801d9f4c"
        },
        "encounter": {
          "reference": "Encounter/bb576f89-9deb-4cd6-b6ae-5b264f50846a"
        },
        "effectiveDateTime": "2025-10-16"
      },
      "request": {
        "method": "POST",
        "url": "Observation"
      }
    }
  ]
}