{
  "resourceType": "Bundle",
  "type": "transaction",
  "entry": [
    {
      "fullUrl": "urn:uuid:0f13fa0f-24a6-4e33-9d6d-703bf8c2c244",
      "resource": {
        "resourceType": "Patient",
        "id": "0f13fa0f-24a6-4e33-9d6d-703bf8c2c244",
        "name": [
          {
            "family": "Krek",
            "given": [
              "Daniel"
            ]
          }
        ],
        "gender": "male",
        "address": [
          {}
        ]
      },
      "request": {
        "method": "POST",
        "url": "Patient"
      }
    },
    {
      "fullUrl": "urn:uuid:aace679c-32a1-4d85-b465-5c70e5c2bf1f",
      "resource": {
        "resourceType": "Encounter",
        "id": "aace679c-32a1-4d85-b465-5c70e5c2bf1f",
        "identifier": [
          {
            "use": "temp",
            "value": "Encounter_Daniel Krek_20251017122335"
          }
        ],
        "status": "completed",
        "priority": {
          "coding": [
            {
              "system": "http://snomed.info/sct",
              "code": "17621005",
              "display": "Normal"
            }
          ]
        },
        "type": [
          {
            "coding": [
              {
                "system": "http://snomed.info/sct",
                "code": "11429006",
                "display": "Consultation"
              }
            ]
          }
        ],
        "subject": {
          "reference": "Patient/0f13fa0f-24a6-4e33-9d6d-703bf8c2c244",
          "display": "Daniel Krek"
        },
        "reason": [
          {
            "value": [
              {
                "concept": {
                  "text": "episodes of dark urine in the morning and increasing fatigue"
                }
              }
            ]
          }
        ]
      },
      "request": {
        "method": "POST",
        "url": "Encounter"
      }
    },
    {
      "fullUrl": "urn:uuid:0f6ff663-81a7-4e3f-b66a-b6f3cc74027e",
      "resource": {
        "resourceType": "Observation",
        "id": "0f6ff663-81a7-4e3f-b66a-b6f3cc74027e",
        "status": "final",
        "category": [
          {
            "coding": [
              {
                "system": "http://terminology.hl7.org/CodeSystem/observation-category",
                "code": "laboratory",
                "display": "Laboratory"
              }
            ],
            "text": "Laboratory"
          }
        ],
        "code": {
          "coding": [
            {
              "system": "http://loinc.org",
              "code": "58410-2",
              "display": "Complete blood count panel"
            }
          ],
          "text": "Complete Blood Count (CBC)"
        },
        "subject": {
          "reference": "Patient/0f13fa0f-24a6-4e33-9d6d-703bf8c2c244"
        },
        "encounter": {
          "reference": "Encounter/aace679c-32a1-4d85-b465-5c70e5c2bf1f"
        },
        "effectiveDateTime": "2025-10-17T10:23:35.212821Z",
        "interpretation": [
          {
            "coding": [
              {
                "system": "http://terminology.hl7.org/CodeSystem/v3-ObservationInterpretation",
                "code": "A",
                "display": "Abnormal"
              }
            ]
          }
        ],
        "note": [
          {
            "text": "Definition: https://loinc.org/58410-2/"
          }
        ]
      },
      "request": {
        "method": "POST",
        "url": "Observation"
      }
    },
    {
      "fullUrl": "urn:uuid:a19ba241-0820-4bbe-b386-c44e96ebe06f",
      "resource": {
        "resourceType": "Observation",
        "id": "a19ba241-0820-4bbe-b386-c44e96ebe06f",
        "status": "final",
        "category": [
          {
            "coding": [
              {
                "system": "http://terminology.hl7.org/CodeSystem/observation-category",
                "code": "laboratory",
                "display": "Laboratory"
              }
            ],
            "text": "Laboratory"
          }
        ],
        "code": {
          "coding": [
            {
              "system": "http://loinc.org",
              "code": "2546-0",
              "display": "LDH4 SerPl-cCnc"
            }
          ],
          "text": "Lactate Dehydrogenase (LDH)"
        },
        "subject": {
          "reference": "Patient/0f13fa0f-24a6-4e33-9d6d-703bf8c2c244"
        },
        "encounter": {
          "reference": "Encounter/aace679c-32a1-4d85-b465-5c70e5c2bf1f"
        },
        "effectiveDateTime": "2025-10-17T10:23:35.417775Z",
        "interpretation": [
          {
            "coding": [
              {
                "system": "http://terminology.hl7.org/CodeSystem/v3-ObservationInterpretation",
                "code": "H",
                "display": "High"
              }
            ]
          }
        ],
        "note": [
          {
            "text": "Definition: https://loinc.org/2546-0/"
          }
        ]
      },
      "request": {
        "method": "POST",
        "url": "Observation"
      }
    },
    {
      "fullUrl": "urn:uuid:90c277ea-bab8-43ef-aabc-4b3c4182ea3d",
      "resource": {
        "resourceType": "Observation",
        "id": "90c277ea-bab8-43ef-aabc-4b3c4182ea3d",
        "status": "final",
        "category": [
          {
            "coding": [
              {
                "system": "http://terminology.hl7.org/CodeSystem/observation-category",
                "code": "laboratory",
                "display": "Laboratory"
              }
            ],
            "text": "Laboratory"
          }
        ],
        "code": {
          "coding": [
            {
              "system": "http://loinc.org",
              "code": "78442-1",
              "display": "Bilirub Indirect Prt-sCnc"
            }
          ],
          "text": "Bilirubin"
        },
        "subject": {
          "reference": "Patient/0f13fa0f-24a6-4e33-9d6d-703bf8c2c244"
        },
        "encounter": {
          "reference": "Encounter/aace679c-32a1-4d85-b465-5c70e5c2bf1f"
        },
        "effectiveDateTime": "2025-10-17T10:23:35.622105Z",
        "interpretation": [
          {
            "coding": [
              {
                "system": "http://terminology.hl7.org/CodeSystem/v3-ObservationInterpretation",
                "code": "A",
                "display": "Abnormal"
              }
            ]
          }
        ],
        "note": [
          {
            "text": "Definition: https://loinc.org/78442-1/"
          }
        ]
      },
      "request": {
        "method": "POST",
        "url": "Observation"
      }
    },
    {
      "fullUrl": "urn:uuid:53940c67-a4a0-4ec6-a5ca-5806bb9a50bd",
      "resource": {
        "resourceType": "Observation",
        "id": "53940c67-a4a0-4ec6-a5ca-5806bb9a50bd",
        "status": "final",
        "category": [
          {
            "coding": [
              {
                "system": "http://terminology.hl7.org/CodeSystem/observation-category",
                "code": "laboratory",
                "display": "Laboratory"
              }
            ],
            "text": "Laboratory"
          }
        ],
        "code": {
          "coding": [
            {
              "system": "http://loinc.org",
              "code": "14196-0",
              "display": "Retics #"
            }
          ],
          "text": "Reticulocyte Count"
        },
        "subject": {
          "reference": "Patient/0f13fa0f-24a6-4e33-9d6d-703bf8c2c244"
        },
        "encounter": {
          "reference": "Encounter/aace679c-32a1-4d85-b465-5c70e5c2bf1f"
        },
        "effectiveDateTime": "2025-10-17T10:23:35.826469Z",
        "interpretation": [
          {
            "coding": [
              {
                "system": "http://terminology.hl7.org/CodeSystem/v3-ObservationInterpretation",
                "code": "H",
                "display": "High"
              }
            ]
          }
        ],
        "note": [
          {
            "text": "Definition: https://loinc.org/14196-0/"
          }
        ]
      },
      "request": {
        "method": "POST",
        "url": "Observation"
      }
    },
    {
      "fullUrl": "urn:uuid:cc309237-dc46-48cc-b4f1-6a42c9314061",
      "resource": {
        "resourceType": "Observation",
        "id": "cc309237-dc46-48cc-b4f1-6a42c9314061",
        "status": "final",
        "category": [
          {
            "coding": [
              {
                "system": "http://terminology.hl7.org/CodeSystem/observation-category",
                "code": "laboratory",
                "display": "Laboratory"
              }
            ],
            "text": "Laboratory"
          }
        ],
        "code": {
          "coding": [
            {
              "system": "http://loinc.org",
              "code": "110648-3",
              "display": "Haptoglob Msmt SerPl"
            }
          ],
          "text": "Haptoglobin"
        },
        "subject": {
          "reference": "Patient/0f13fa0f-24a6-4e33-9d6d-703bf8c2c244"
        },
        "encounter": {
          "reference": "Encounter/aace679c-32a1-4d85-b465-5c70e5c2bf1f"
        },
        "effectiveDateTime": "2025-10-17T10:23:36.031941Z",
        "interpretation": [
          {
            "coding": [
              {
                "system": "http://terminology.hl7.org/CodeSystem/v3-ObservationInterpretation",
                "code": "L",
                "display": "Low"
              }
            ]
          }
        ],
        "note": [
          {
            "text": "Definition: https://loinc.org/110648-3/"
          }
        ]
      },
      "request": {
        "method": "POST",
        "url": "Observation"
      }
    },
    {
      "fullUrl": "urn:uuid:f45f15e8-d2c9-483f-b746-544b1e6fa789",
      "resource": {
        "resourceType": "Observation",
        "id": "f45f15e8-d2c9-483f-b746-544b1e6fa789",
        "status": "final",
        "category": [
          {
            "coding": [
              {
                "system": "http://terminology.hl7.org/CodeSystem/observation-category",
                "code": "laboratory",
                "display": "Laboratory"
              }
            ],
            "text": "Laboratory"
          }
        ],
        "code": {
          "coding": [
            {
              "system": "http://loinc.org",
              "code": "33719-6",
              "display": "Flow cytometry study"
            }
          ],
          "text": "Flow Cytometry"
        },
        "subject": {
          "reference": "Patient/0f13fa0f-24a6-4e33-9d6d-703bf8c2c244"
        },
        "encounter": {
          "reference": "Encounter/aace679c-32a1-4d85-b465-5c70e5c2bf1f"
        },
        "effectiveDateTime": "2025-10-17T10:23:36.236686Z",
        "note": [
          {
            "text": "Definition: https://loinc.org/33719-6/"
          }
        ]
      },
      "request": {
        "method": "POST",
        "url": "Observation"
      }
    },
    {
      "fullUrl": "urn:uuid:50542a75-d519-40eb-9883-0e00c0b302a8",
      "resource": {
        "resourceType": "Observation",
        "id": "50542a75-d519-40eb-9883-0e00c0b302a8",
        "status": "final",
        "category": [
          {
            "coding": [
              {
                "system": "http://terminology.hl7.org/CodeSystem/observation-category",
                "code": "exam",
                "display": "Exam"
              }
            ],
            "text": "Exam"
          }
        ],
        "code": {
          "coding": [
            {
              "system": "http://snomed.info/sct",
              "code": "39575007",
              "display": "Urine looks dark"
            }
          ],
          "text": "Dark Urine"
        },
        "subject": {
          "reference": "Patient/0f13fa0f-24a6-4e33-9d6d-703bf8c2c244"
        },
        "encounter": {
          "reference": "Encounter/aace679c-32a1-4d85-b465-5c70e5c2bf1f"
        },
        "effectivePeriod": {
          "start": "2025-10-17T10:23:37.674435Z"
        },
        "valueBoolean": true,
        "note": [
          {
            "text": "Definition: https://snomed.info/id/39575007"
          }
        ]
      },
      "request": {
        "method": "POST",
        "url": "Observation"
      }
    },
    {
      "fullUrl": "urn:uuid:5fca328d-53ce-4162-a105-a61328570002",
      "resource": {
        "resourceType": "Observation",
        "id": "5fca328d-53ce-4162-a105-a61328570002",
        "status": "final",
        "category": [
          {
            "coding": [
              {
                "system": "http://terminology.hl7.org/CodeSystem/observation-category",
                "code": "exam",
                "display": "Exam"
              }
            ],
            "text": "Exam"
          }
        ],
        "code": {
          "coding": [
            {
              "system": "http://snomed.info/sct",
              "code": "84229001",
              "display": "Fatigue"
            }
          ],
          "text": "Fatigue"
        },
        "subject": {
          "reference": "Patient/0f13fa0f-24a6-4e33-9d6d-703bf8c2c244"
        },
        "encounter": {
          "reference": "Encounter/aace679c-32a1-4d85-b465-5c70e5c2bf1f"
        },
        "effectivePeriod": {
          "start": "2025-10-17T10:23:40.237186Z"
        },
        "valueBoolean": true,
        "note": [
          {
            "text": "Definition: https://snomed.info/id/84229001"
          }
        ]
      },
      "request": {
        "method": "POST",
        "url": "Observation"
      }
    },
    {
      "fullUrl": "urn:uuid:30ab2dfb-a6c0-4a05-81cb-d4cd6affe104",
      "resource": {
        "resourceType": "Observation",
        "id": "30ab2dfb-a6c0-4a05-81cb-d4cd6affe104",
        "status": "final",
        "category": [
          {
            "coding": [
              {
                "system": "http://terminology.hl7.org/CodeSystem/observation-category",
                "code": "exam",
                "display": "Exam"
              }
            ],
            "text": "Exam"
          }
        ],
        "code": {
          "coding": [
            {
              "system": "http://snomed.info/sct",
              "code": "247355005",
              "display": "Flank pain"
            }
          ],
          "text": "Flank Pain"
        },
        "subject": {
          "reference": "Patient/0f13fa0f-24a6-4e33-9d6d-703bf8c2c244"
        },
        "encounter": {
          "reference": "Encounter/aace679c-32a1-4d85-b465-5c70e5c2bf1f"
        },
        "effectivePeriod": {
          "start": "2025-10-17T10:23:41.668590Z"
        },
        "valueBoolean": false,
        "note": [
          {
            "text": "Definition: https://snomed.info/id/247355005"
          }
        ]
      },
      "request": {
        "method": "POST",
        "url": "Observation"
      }
    },
    {
      "fullUrl": "urn:uuid:8fc6b04f-b071-4a4e-ba22-0f4b823d4270",
      "resource": {
        "resourceType": "Observation",
        "id": "8fc6b04f-b071-4a4e-ba22-0f4b823d4270",
        "status": "final",
        "category": [
          {
            "coding": [
              {
                "system": "http://terminology.hl7.org/CodeSystem/observation-category",
                "code": "exam",
                "display": "Exam"
              }
            ],
            "text": "Exam"
          }
        ],
        "code": {
          "coding": [
            {
              "system": "http://snomed.info/sct",
              "code": "102463001",
              "display": "Susceptibility to infections"
            }
          ],
          "text": "Infections"
        },
        "subject": {
          "reference": "Patient/0f13fa0f-24a6-4e33-9d6d-703bf8c2c244"
        },
        "encounter": {
          "reference": "Encounter/aace679c-32a1-4d85-b465-5c70e5c2bf1f"
        },
        "effectivePeriod": {
          "start": "2025-10-17T10:23:44.433504Z"
        },
        "valueBoolean": false,
        "note": [
          {
            "text": "Definition: https://snomed.info/id/102463001"
          }
        ]
      },
      "request": {
        "method": "POST",
        "url": "Observation"
      }
    }
  ]
}