{
  "resourceType": "Bundle",
  "type": "transaction",
  "entry": [
    {
      "fullUrl": "urn:uuid:4cec876d-7df4-4710-a27f-4ae7b48a9054",
      "resource": {
        "resourceType": "Patient",
        "id": "4cec876d-7df4-4710-a27f-4ae7b48a9054",
        "name": [
          {
            "family": "Kovalchuk",
            "given": [
              "Irina"
            ]
          }
        ],
        "gender": "female",
        "address": [
          {}
        ]
      },
      "request": {
        "method": "POST",
        "url": "Patient"
      }
    },
    {
      "fullUrl": "urn:uuid:876efe67-d307-4814-b095-f55b360f789d",
      "resource": {
        "resourceType": "Encounter",
        "id": "876efe67-d307-4814-b095-f55b360f789d",
        "identifier": [
          {
            "use": "temp",
            "value": "Encounter_Irina Kovalchuk_20251017182927"
          }
        ],
        "status": "completed",
        "priority": {
          "coding": [
            {
              "system": "http://snomed.info/sct",
              "code": "17621005",
              "display": "Normal"
            }
          ]
        },
        "type": [
          {
            "coding": [
              {
                "system": "http://snomed.info/sct",
                "code": "11429006",
                "display": "Consultation"
              }
            ]
          }
        ],
        "subject": {
          "reference": "Patient/4cec876d-7df4-4710-a27f-4ae7b48a9054",
          "display": "Irina Kovalchuk"
        },
        "reason": [
          {
            "value": [
              {
                "concept": {
                  "text": "increasing fatigue and intermittent dark urine"
                }
              }
            ]
          }
        ]
      },
      "request": {
        "method": "POST",
        "url": "Encounter"
      }
    },
    {
      "fullUrl": "urn:uuid:27d77c19-8d1d-4430-9fd9-5b36d375301f",
      "resource": {
        "resourceType": "Observation",
        "id": "27d77c19-8d1d-4430-9fd9-5b36d375301f",
        "status": "final",
        "category": [
          {
            "coding": [
              {
                "system": "http://terminology.hl7.org/CodeSystem/observation-category",
                "code": "laboratory",
                "display": "Laboratory"
              }
            ],
            "text": "Laboratory"
          }
        ],
        "code": {
          "coding": [
            {
              "system": "http://loinc.org",
              "code": "2546-0",
              "display": "LDH4 SerPl-cCnc"
            }
          ],
          "text": "LDH"
        },
        "subject": {
          "reference": "Patient/4cec876d-7df4-4710-a27f-4ae7b48a9054"
        },
        "encounter": {
          "reference": "Encounter/876efe67-d307-4814-b095-f55b360f789d"
        },
        "effectiveDateTime": "2025-10-16",
        "interpretation": [
          {
            "coding": [
              {
                "system": "http://terminology.hl7.org/CodeSystem/v3-ObservationInterpretation",
                "code": "H",
                "display": "High"
              }
            ]
          }
        ],
        "note": [
          {
            "text": "Definition: https://loinc.org/2546-0/"
          }
        ]
      },
      "request": {
        "method": "POST",
        "url": "Observation"
      }
    },
    {
      "fullUrl": "urn:uuid:607df436-3f43-4ce2-891b-647ad3b34f7a",
      "resource": {
        "resourceType": "Observation",
        "id": "607df436-3f43-4ce2-891b-647ad3b34f7a",
        "status": "final",
        "category": [
          {
            "coding": [
              {
                "system": "http://terminology.hl7.org/CodeSystem/observation-category",
                "code": "laboratory",
                "display": "Laboratory"
              }
            ],
            "text": "Laboratory"
          }
        ],
        "code": {
          "coding": [
            {
              "system": "http://loinc.org",
              "code": "74775-8",
              "display": "Platelet # PRP Auto"
            }
          ],
          "text": "Platelet count"
        },
        "subject": {
          "reference": "Patient/4cec876d-7df4-4710-a27f-4ae7b48a9054"
        },
        "encounter": {
          "reference": "Encounter/876efe67-d307-4814-b095-f55b360f789d"
        },
        "effectiveDateTime": "2025-10-16",
        "interpretation": [
          {
            "coding": [
              {
                "system": "http://terminology.hl7.org/CodeSystem/v3-ObservationInterpretation",
                "code": "L",
                "display": "Low"
              }
            ]
          }
        ],
        "note": [
          {
            "text": "Definition: https://loinc.org/74775-8/"
          }
        ]
      },
      "request": {
        "method": "POST",
        "url": "Observation"
      }
    },
    {
      "fullUrl": "urn:uuid:3ef13efd-d81a-4aa5-ab89-6495830e0432",
      "resource": {
        "resourceType": "Observation",
        "id": "3ef13efd-d81a-4aa5-ab89-6495830e0432",
        "status": "final",
        "category": [
          {
            "coding": [
              {
                "system": "http://terminology.hl7.org/CodeSystem/observation-category",
                "code": "exam",
                "display": "Exam"
              }
            ],
            "text": "Exam"
          }
        ],
        "code": {
          "coding": [
            {
              "system": "http://snomed.info/sct",
              "code": "84229001",
              "display": "Fatigue"
            }
          ],
          "text": "Fatigue"
        },
        "subject": {
          "reference": "Patient/4cec876d-7df4-4710-a27f-4ae7b48a9054"
        },
        "encounter": {
          "reference": "Encounter/876efe67-d307-4814-b095-f55b360f789d"
        },
        "effectivePeriod": {
          "start": "2025-10-16"
        },
        "valueBoolean": true,
        "note": [
          {
            "text": "Definition: https://snomed.info/id/84229001"
          }
        ]
      },
      "request": {
        "method": "POST",
        "url": "Observation"
      }
    },
    {
      "fullUrl": "urn:uuid:9611eb40-9d33-4c7a-8454-259d9ce74820",
      "resource": {
        "resourceType": "Observation",
        "id": "9611eb40-9d33-4c7a-8454-259d9ce74820",
        "status": "final",
        "category": [
          {
            "coding": [
              {
                "system": "http://terminology.hl7.org/CodeSystem/observation-category",
                "code": "exam",
                "display": "Exam"
              }
            ],
            "text": "Exam"
          }
        ],
        "code": {
          "coding": [
            {
              "system": "http://snomed.info/sct",
              "code": "39575007",
              "display": "Urine looks dark"
            }
          ],
          "text": "Dark urine"
        },
        "subject": {
          "reference": "Patient/4cec876d-7df4-4710-a27f-4ae7b48a9054"
        },
        "encounter": {
          "reference": "Encounter/876efe67-d307-4814-b095-f55b360f789d"
        },
        "effectivePeriod": {
          "start": "2025-10-16"
        },
        "valueBoolean": true,
        "note": [
          {
            "text": "Definition: https://snomed.info/id/39575007"
          }
        ]
      },
      "request": {
        "method": "POST",
        "url": "Observation"
      }
    },
    {
      "fullUrl": "urn:uuid:0535bc06-af78-4838-aeef-0fd9fce0c661",
      "resource": {
        "resourceType": "Observation",
        "id": "0535bc06-af78-4838-aeef-0fd9fce0c661",
        "status": "final",
        "category": [
          {
            "coding": [
              {
                "system": "http://terminology.hl7.org/CodeSystem/observation-category",
                "code": "exam",
                "display": "Exam"
              }
            ],
            "text": "Exam"
          }
        ],
        "code": {
          "coding": [
            {
              "system": "http://snomed.info/sct",
              "code": "135833008",
              "display": "CLASP shortness of breath score"
            }
          ],
          "text": "Shortness of breath"
        },
        "subject": {
          "reference": "Patient/4cec876d-7df4-4710-a27f-4ae7b48a9054"
        },
        "encounter": {
          "reference": "Encounter/876efe67-d307-4814-b095-f55b360f789d"
        },
        "effectivePeriod": {
          "start": "2025-10-16"
        },
        "valueBoolean": true,
        "note": [
          {
            "text": "Definition: https://snomed.info/id/135833008"
          }
        ]
      },
      "request": {
        "method": "POST",
        "url": "Observation"
      }
    },
    {
      "fullUrl": "urn:uuid:5856ba4b-1ea9-4ea7-a311-9a4422f5f9c9",
      "resource": {
        "resourceType": "Observation",
        "id": "5856ba4b-1ea9-4ea7-a311-9a4422f5f9c9",
        "status": "final",
        "category": [
          {
            "coding": [
              {
                "system": "http://terminology.hl7.org/CodeSystem/observation-category",
                "code": "vital-signs",
                "display": "Vital Signs"
              }
            ],
            "text": "Vital Signs"
          }
        ],
        "code": {
          "coding": [
            {
              "system": "http://loinc.org",
              "code": "unknown",
              "display": "Pallor"
            }
          ],
          "text": "Pallor"
        },
        "subject": {
          "reference": "Patient/4cec876d-7df4-4710-a27f-4ae7b48a9054"
        },
        "encounter": {
          "reference": "Encounter/876efe67-d307-4814-b095-f55b360f789d"
        },
        "effectiveDateTime": "2025-10-16",
        "interpretation": [
          {
            "coding": [
              {
                "system": "http://terminology.hl7.org/CodeSystem/v3-ObservationInterpretation",
                "code": "A",
                "display": "Abnormal"
              }
            ],
            "text": "Abnormal"
          }
        ]
      },
      "request": {
        "method": "POST",
        "url": "Observation"
      }
    },
    {
      "fullUrl": "urn:uuid:fe772e35-f540-4d4a-9020-ed033f781405",
      "resource": {
        "resourceType": "List",
        "id": "fe772e35-f540-4d4a-9020-ed033f781405",
        "contained": [
          {
            "resourceType": "FamilyMemberHistory",
            "id": "fmh-1",
            "status": "completed",
            "patient": {
              "reference": "Patient/4cec876d-7df4-4710-a27f-4ae7b48a9054"
            },
            "relationship": {
              "coding": [
                {
                  "system": "http://snomed.info/sct",
                  "code": "55538000",
                  "display": "Cousin"
                }
              ]
            },
            "deceasedBoolean": false,
            "condition": [
              {
                "code": {
                  "coding": [
                    {
                      "system": "http://snomed.info/sct",
                      "code": "237145004",
                      "display": "Unexplained infertility"
                    }
                  ]
                }
              }
            ]
          }
        ],
        "status": "current",
        "mode": "snapshot",
        "code": {
          "coding": [
            {
              "system": "http://loinc.org",
              "code": "8670-2",
              "display": "History of family member diseases"
            }
          ]
        },
        "subject": [
          {
            "reference": "Patient/4cec876d-7df4-4710-a27f-4ae7b48a9054"
          }
        ],
        "entry": [
          {
            "item": {
              "reference": "#fmh-1"
            }
          }
        ]
      },
      "request": {
        "method": "POST",
        "url": "FamilyMemberHistory"
      }
    }
  ]
}