{
  "resourceType": "Bundle",
  "type": "transaction",
  "entry": [
    {
      "fullUrl": "urn:uuid:15cf8325-87c3-47ba-b086-5dde768ace83",
      "resource": {
        "resourceType": "Patient",
        "id": "15cf8325-87c3-47ba-b086-5dde768ace83",
        "name": [
          {
            "family": "Melnikov",
            "given": [
              "Oleg"
            ]
          }
        ],
        "gender": "male",
        "address": [
          {}
        ]
      },
      "request": {
        "method": "POST",
        "url": "Patient"
      }
    },
    {
      "fullUrl": "urn:uuid:f2c201bd-cf9f-430b-84ff-857d9302e5b2",
      "resource": {
        "resourceType": "Encounter",
        "id": "f2c201bd-cf9f-430b-84ff-857d9302e5b2",
        "identifier": [
          {
            "use": "temp",
            "value": "Encounter_Oleg Melnikov_20251017182917"
          }
        ],
        "status": "completed",
        "priority": {
          "coding": [
            {
              "system": "http://snomed.info/sct",
              "code": "17621005",
              "display": "Normal"
            }
          ]
        },
        "type": [
          {
            "coding": [
              {
                "system": "http://snomed.info/sct",
                "code": "11429006",
                "display": "Consultation"
              }
            ]
          }
        ],
        "subject": {
          "reference": "Patient/15cf8325-87c3-47ba-b086-5dde768ace83",
          "display": "Oleg Melnikov"
        },
        "reason": [
          {
            "value": [
              {
                "concept": {
                  "text": "episodes of dark-colored urine and fatigue"
                }
              }
            ]
          }
        ]
      },
      "request": {
        "method": "POST",
        "url": "Encounter"
      }
    },
    {
      "fullUrl": "urn:uuid:a4864c12-028f-4253-8d69-ca23ba9fa8fc",
      "resource": {
        "resourceType": "Observation",
        "id": "a4864c12-028f-4253-8d69-ca23ba9fa8fc",
        "status": "final",
        "category": [
          {
            "coding": [
              {
                "system": "http://terminology.hl7.org/CodeSystem/observation-category",
                "code": "laboratory",
                "display": "Laboratory"
              }
            ],
            "text": "Laboratory"
          }
        ],
        "code": {
          "coding": [
            {
              "system": "http://loinc.org",
              "code": "62854-5",
              "display": "PhenX - glycosylated hemoglobin assay reflecting long-term glucose concentration protocol 140901"
            }
          ],
          "text": "Hemoglobin"
        },
        "subject": {
          "reference": "Patient/15cf8325-87c3-47ba-b086-5dde768ace83"
        },
        "encounter": {
          "reference": "Encounter/f2c201bd-cf9f-430b-84ff-857d9302e5b2"
        },
        "effectiveDateTime": "2025-10-16",
        "interpretation": [
          {
            "coding": [
              {
                "system": "http://terminology.hl7.org/CodeSystem/v3-ObservationInterpretation",
                "code": "L",
                "display": "Low"
              }
            ]
          }
        ],
        "note": [
          {
            "text": "Definition: https://loinc.org/62854-5/"
          }
        ]
      },
      "request": {
        "method": "POST",
        "url": "Observation"
      }
    },
    {
      "fullUrl": "urn:uuid:fdcab143-84f2-4f80-abd8-7d688b0b7bf2",
      "resource": {
        "resourceType": "Observation",
        "id": "fdcab143-84f2-4f80-abd8-7d688b0b7bf2",
        "status": "final",
        "category": [
          {
            "coding": [
              {
                "system": "http://terminology.hl7.org/CodeSystem/observation-category",
                "code": "laboratory",
                "display": "Laboratory"
              }
            ],
            "text": "Laboratory"
          }
        ],
        "code": {
          "coding": [
            {
              "system": "http://loinc.org",
              "code": "14196-0",
              "display": "Retics #"
            }
          ],
          "text": "Reticulocyte count"
        },
        "subject": {
          "reference": "Patient/15cf8325-87c3-47ba-b086-5dde768ace83"
        },
        "encounter": {
          "reference": "Encounter/f2c201bd-cf9f-430b-84ff-857d9302e5b2"
        },
        "effectiveDateTime": "2025-10-16",
        "note": [
          {
            "text": "Definition: https://loinc.org/14196-0/"
          }
        ]
      },
      "request": {
        "method": "POST",
        "url": "Observation"
      }
    },
    {
      "fullUrl": "urn:uuid:84873120-cb27-421c-8f1b-47c846080d50",
      "resource": {
        "resourceType": "Observation",
        "id": "84873120-cb27-421c-8f1b-47c846080d50",
        "status": "final",
        "category": [
          {
            "coding": [
              {
                "system": "http://terminology.hl7.org/CodeSystem/observation-category",
                "code": "laboratory",
                "display": "Laboratory"
              }
            ],
            "text": "Laboratory"
          }
        ],
        "code": {
          "coding": [
            {
              "system": "http://loinc.org",
              "code": "110648-3",
              "display": "Haptoglob Msmt SerPl"
            }
          ],
          "text": "Haptoglobin"
        },
        "subject": {
          "reference": "Patient/15cf8325-87c3-47ba-b086-5dde768ace83"
        },
        "encounter": {
          "reference": "Encounter/f2c201bd-cf9f-430b-84ff-857d9302e5b2"
        },
        "effectiveDateTime": "2025-10-16",
        "interpretation": [
          {
            "coding": [
              {
                "system": "http://terminology.hl7.org/CodeSystem/v3-ObservationInterpretation",
                "code": "L",
                "display": "Low"
              }
            ]
          }
        ],
        "note": [
          {
            "text": "Definition: https://loinc.org/110648-3/"
          }
        ]
      },
      "request": {
        "method": "POST",
        "url": "Observation"
      }
    },
    {
      "fullUrl": "urn:uuid:486ad099-0d23-4a26-b239-c3274ff23ee5",
      "resource": {
        "resourceType": "Observation",
        "id": "486ad099-0d23-4a26-b239-c3274ff23ee5",
        "status": "final",
        "category": [
          {
            "coding": [
              {
                "system": "http://terminology.hl7.org/CodeSystem/observation-category",
                "code": "exam",
                "display": "Exam"
              }
            ],
            "text": "Exam"
          }
        ],
        "code": {
          "coding": [
            {
              "system": "http://snomed.info/sct",
              "code": "449251000124106",
              "display": "Dark-brown colored urine"
            }
          ],
          "text": "Dark-colored urine"
        },
        "subject": {
          "reference": "Patient/15cf8325-87c3-47ba-b086-5dde768ace83"
        },
        "encounter": {
          "reference": "Encounter/f2c201bd-cf9f-430b-84ff-857d9302e5b2"
        },
        "effectivePeriod": {
          "start": "2025-10-16"
        },
        "valueBoolean": true,
        "note": [
          {
            "text": "Definition: https://snomed.info/id/449251000124106"
          }
        ]
      },
      "request": {
        "method": "POST",
        "url": "Observation"
      }
    },
    {
      "fullUrl": "urn:uuid:c7f400f0-c214-4f61-bc14-5a76a2c0f38a",
      "resource": {
        "resourceType": "Observation",
        "id": "c7f400f0-c214-4f61-bc14-5a76a2c0f38a",
        "status": "final",
        "category": [
          {
            "coding": [
              {
                "system": "http://terminology.hl7.org/CodeSystem/observation-category",
                "code": "exam",
                "display": "Exam"
              }
            ],
            "text": "Exam"
          }
        ],
        "code": {
          "coding": [
            {
              "system": "http://snomed.info/sct",
              "code": "84229001",
              "display": "Fatigue"
            }
          ],
          "text": "Fatigue"
        },
        "subject": {
          "reference": "Patient/15cf8325-87c3-47ba-b086-5dde768ace83"
        },
        "encounter": {
          "reference": "Encounter/f2c201bd-cf9f-430b-84ff-857d9302e5b2"
        },
        "effectivePeriod": {
          "start": "2025-10-16"
        },
        "valueBoolean": true,
        "note": [
          {
            "text": "Definition: https://snomed.info/id/84229001"
          }
        ]
      },
      "request": {
        "method": "POST",
        "url": "Observation"
      }
    },
    {
      "fullUrl": "urn:uuid:3d307730-b103-4426-a678-7727d7e87641",
      "resource": {
        "resourceType": "Observation",
        "id": "3d307730-b103-4426-a678-7727d7e87641",
        "status": "final",
        "category": [
          {
            "coding": [
              {
                "system": "http://terminology.hl7.org/CodeSystem/observation-category",
                "code": "exam",
                "display": "Exam"
              }
            ],
            "text": "Exam"
          }
        ],
        "code": {
          "coding": [
            {
              "system": "http://snomed.info/sct",
              "code": "95199009",
              "display": "Pallor of liver"
            }
          ],
          "text": "Pallor"
        },
        "subject": {
          "reference": "Patient/15cf8325-87c3-47ba-b086-5dde768ace83"
        },
        "encounter": {
          "reference": "Encounter/f2c201bd-cf9f-430b-84ff-857d9302e5b2"
        },
        "effectivePeriod": {
          "start": "2025-10-16"
        },
        "valueBoolean": true,
        "note": [
          {
            "text": "Definition: https://snomed.info/id/95199009"
          }
        ]
      },
      "request": {
        "method": "POST",
        "url": "Observation"
      }
    }
  ]
}