{
  "resourceType": "Bundle",
  "type": "transaction",
  "entry": [
    {
      "fullUrl": "urn:uuid:e48e2716-0463-4bd5-9a30-ec6898c4b379",
      "resource": {
        "resourceType": "Patient",
        "id": "e48e2716-0463-4bd5-9a30-ec6898c4b379",
        "name": [
          {
            "family": "Melnikov",
            "given": [
              "Oleg"
            ]
          }
        ],
        "gender": "male",
        "birthDate": "2000-07-12",
        "address": [
          {}
        ]
      },
      "request": {
        "method": "POST",
        "url": "Patient"
      }
    },
    {
      "fullUrl": "urn:uuid:43e93637-e008-4fe2-a39e-c063545d9501",
      "resource": {
        "resourceType": "Encounter",
        "id": "43e93637-e008-4fe2-a39e-c063545d9501",
        "identifier": [
          {
            "use": "temp",
            "value": "Encounter_Oleg Melnikov_20251020131924"
          }
        ],
        "status": "completed",
        "priority": {
          "coding": [
            {
              "system": "http://snomed.info/sct",
              "code": "17621005",
              "display": "Normal"
            }
          ]
        },
        "type": [
          {
            "coding": [
              {
                "system": "http://snomed.info/sct",
                "code": "11429006",
                "display": "Consultation"
              }
            ]
          }
        ],
        "subject": {
          "reference": "Patient/e48e2716-0463-4bd5-9a30-ec6898c4b379",
          "display": "Oleg Melnikov"
        },
        "reason": [
          {
            "value": [
              {
                "concept": {
                  "text": "episodes of dark-colored urine and fatigue"
                }
              }
            ]
          }
        ]
      },
      "request": {
        "method": "POST",
        "url": "Encounter"
      }
    },
    {
      "fullUrl": "urn:uuid:4a64247c-4bcb-4b04-a514-09879fefc0e0",
      "resource": {
        "resourceType": "Observation",
        "id": "4a64247c-4bcb-4b04-a514-09879fefc0e0",
        "status": "final",
        "category": [
          {
            "coding": [
              {
                "system": "http://terminology.hl7.org/CodeSystem/observation-category",
                "code": "laboratory",
                "display": "Laboratory"
              }
            ],
            "text": "Laboratory"
          }
        ],
        "code": {
          "coding": [
            {
              "system": "http://loinc.org",
              "code": "62854-5",
              "display": "PhenX - glycosylated hemoglobin assay reflecting long-term glucose concentration protocol 140901"
            }
          ],
          "text": "Hemoglobin"
        },
        "subject": {
          "reference": "Patient/e48e2716-0463-4bd5-9a30-ec6898c4b379"
        },
        "encounter": {
          "reference": "Encounter/43e93637-e008-4fe2-a39e-c063545d9501"
        },
        "effectiveDateTime": "2025-10-16",
        "interpretation": [
          {
            "coding": [
              {
                "system": "http://terminology.hl7.org/CodeSystem/v3-ObservationInterpretation",
                "code": "L",
                "display": "Low"
              }
            ]
          }
        ],
        "note": [
          {
            "text": "Definition: https://loinc.org/62854-5/"
          }
        ]
      },
      "request": {
        "method": "POST",
        "url": "Observation"
      }
    },
    {
      "fullUrl": "urn:uuid:2399549e-8d11-4f43-966f-cc1436cb3b4f",
      "resource": {
        "resourceType": "Observation",
        "id": "2399549e-8d11-4f43-966f-cc1436cb3b4f",
        "status": "final",
        "category": [
          {
            "coding": [
              {
                "system": "http://terminology.hl7.org/CodeSystem/observation-category",
                "code": "laboratory",
                "display": "Laboratory"
              }
            ],
            "text": "Laboratory"
          }
        ],
        "code": {
          "coding": [
            {
              "system": "http://loinc.org",
              "code": "14196-0",
              "display": "Retics #"
            }
          ],
          "text": "Reticulocyte count"
        },
        "subject": {
          "reference": "Patient/e48e2716-0463-4bd5-9a30-ec6898c4b379"
        },
        "encounter": {
          "reference": "Encounter/43e93637-e008-4fe2-a39e-c063545d9501"
        },
        "effectiveDateTime": "2025-10-16",
        "note": [
          {
            "text": "Definition: https://loinc.org/14196-0/"
          }
        ]
      },
      "request": {
        "method": "POST",
        "url": "Observation"
      }
    },
    {
      "fullUrl": "urn:uuid:10f3a3fe-04fa-4303-8cd7-b8ae9df95fc3",
      "resource": {
        "resourceType": "Observation",
        "id": "10f3a3fe-04fa-4303-8cd7-b8ae9df95fc3",
        "status": "final",
        "category": [
          {
            "coding": [
              {
                "system": "http://terminology.hl7.org/CodeSystem/observation-category",
                "code": "laboratory",
                "display": "Laboratory"
              }
            ],
            "text": "Laboratory"
          }
        ],
        "code": {
          "coding": [
            {
              "system": "http://loinc.org",
              "code": "110648-3",
              "display": "Haptoglob Msmt SerPl"
            }
          ],
          "text": "Haptoglobin"
        },
        "subject": {
          "reference": "Patient/e48e2716-0463-4bd5-9a30-ec6898c4b379"
        },
        "encounter": {
          "reference": "Encounter/43e93637-e008-4fe2-a39e-c063545d9501"
        },
        "effectiveDateTime": "2025-10-16",
        "interpretation": [
          {
            "coding": [
              {
                "system": "http://terminology.hl7.org/CodeSystem/v3-ObservationInterpretation",
                "code": "L",
                "display": "Low"
              }
            ]
          }
        ],
        "note": [
          {
            "text": "Definition: https://loinc.org/110648-3/"
          }
        ]
      },
      "request": {
        "method": "POST",
        "url": "Observation"
      }
    },
    {
      "fullUrl": "urn:uuid:b9783b57-3aae-4bd8-a62f-d15d2caf1e44",
      "resource": {
        "resourceType": "Observation",
        "id": "b9783b57-3aae-4bd8-a62f-d15d2caf1e44",
        "status": "final",
        "category": [
          {
            "coding": [
              {
                "system": "http://terminology.hl7.org/CodeSystem/observation-category",
                "code": "exam",
                "display": "Exam"
              }
            ],
            "text": "Exam"
          }
        ],
        "code": {
          "coding": [
            {
              "system": "http://snomed.info/sct",
              "code": "449251000124106",
              "display": "Dark-brown colored urine"
            }
          ],
          "text": "Dark-colored urine"
        },
        "subject": {
          "reference": "Patient/e48e2716-0463-4bd5-9a30-ec6898c4b379"
        },
        "encounter": {
          "reference": "Encounter/43e93637-e008-4fe2-a39e-c063545d9501"
        },
        "effectivePeriod": {
          "start": "2025-10-16"
        },
        "valueBoolean": true,
        "note": [
          {
            "text": "Definition: https://snomed.info/id/449251000124106"
          }
        ]
      },
      "request": {
        "method": "POST",
        "url": "Observation"
      }
    },
    {
      "fullUrl": "urn:uuid:9d707049-6ded-49ba-bf85-e5e1656d67e9",
      "resource": {
        "resourceType": "Observation",
        "id": "9d707049-6ded-49ba-bf85-e5e1656d67e9",
        "status": "final",
        "category": [
          {
            "coding": [
              {
                "system": "http://terminology.hl7.org/CodeSystem/observation-category",
                "code": "exam",
                "display": "Exam"
              }
            ],
            "text": "Exam"
          }
        ],
        "code": {
          "coding": [
            {
              "system": "http://snomed.info/sct",
              "code": "84229001",
              "display": "Fatigue"
            }
          ],
          "text": "Fatigue"
        },
        "subject": {
          "reference": "Patient/e48e2716-0463-4bd5-9a30-ec6898c4b379"
        },
        "encounter": {
          "reference": "Encounter/43e93637-e008-4fe2-a39e-c063545d9501"
        },
        "effectivePeriod": {
          "start": "2025-10-16"
        },
        "valueBoolean": true,
        "note": [
          {
            "text": "Definition: https://snomed.info/id/84229001"
          }
        ]
      },
      "request": {
        "method": "POST",
        "url": "Observation"
      }
    },
    {
      "fullUrl": "urn:uuid:2251fe5b-8251-4f9f-936e-9dace6307d43",
      "resource": {
        "resourceType": "Observation",
        "id": "2251fe5b-8251-4f9f-936e-9dace6307d43",
        "status": "final",
        "category": [
          {
            "coding": [
              {
                "system": "http://terminology.hl7.org/CodeSystem/observation-category",
                "code": "exam",
                "display": "Exam"
              }
            ],
            "text": "Exam"
          }
        ],
        "code": {
          "coding": [
            {
              "system": "http://snomed.info/sct",
              "code": "95199009",
              "display": "Pallor of liver"
            }
          ],
          "text": "Pallor"
        },
        "subject": {
          "reference": "Patient/e48e2716-0463-4bd5-9a30-ec6898c4b379"
        },
        "encounter": {
          "reference": "Encounter/43e93637-e008-4fe2-a39e-c063545d9501"
        },
        "effectivePeriod": {
          "start": "2025-10-16"
        },
        "valueBoolean": true,
        "note": [
          {
            "text": "Definition: https://snomed.info/id/95199009"
          }
        ]
      },
      "request": {
        "method": "POST",
        "url": "Observation"
      }
    }
  ]
}