{
  "resourceType": "Bundle",
  "type": "transaction",
  "entry": [
    {
      "fullUrl": "urn:uuid:de80c3cd-ced9-41fb-beb1-a6be68d4ce05",
      "resource": {
        "resourceType": "Patient",
        "id": "de80c3cd-ced9-41fb-beb1-a6be68d4ce05",
        "name": [
          {
            "family": "Vasquez",
            "given": [
              "Elena"
            ]
          }
        ],
        "gender": "female",
        "birthDate": "1987-01-01",
        "address": [
          {}
        ]
      },
      "request": {
        "method": "POST",
        "url": "Patient"
      }
    },
    {
      "fullUrl": "urn:uuid:cc0b077b-105d-43b1-a4d1-d9942a6afdcc",
      "resource": {
        "resourceType": "Encounter",
        "id": "cc0b077b-105d-43b1-a4d1-d9942a6afdcc",
        "identifier": [
          {
            "use": "temp",
            "value": "Encounter_Elena Vasquez_20251021094052"
          }
        ],
        "status": "completed",
        "priority": {
          "coding": [
            {
              "system": "http://snomed.info/sct",
              "code": "17621005",
              "display": "Normal"
            }
          ]
        },
        "type": [
          {
            "coding": [
              {
                "system": "http://snomed.info/sct",
                "code": "11429006",
                "display": "Consultation"
              }
            ]
          }
        ],
        "subject": {
          "reference": "Patient/de80c3cd-ced9-41fb-beb1-a6be68d4ce05",
          "display": "Elena Vasquez"
        },
        "reason": [
          {
            "value": [
              {
                "concept": {
                  "text": "complaints of intermittent dark urine and fatigue"
                }
              }
            ]
          }
        ]
      },
      "request": {
        "method": "POST",
        "url": "Encounter"
      }
    },
    {
      "fullUrl": "urn:uuid:9f76036f-716e-48af-96ed-1b6d9eb295e6",
      "resource": {
        "resourceType": "Observation",
        "id": "9f76036f-716e-48af-96ed-1b6d9eb295e6",
        "status": "final",
        "category": [
          {
            "coding": [
              {
                "system": "http://terminology.hl7.org/CodeSystem/observation-category",
                "code": "laboratory",
                "display": "Laboratory"
              }
            ],
            "text": "Laboratory"
          }
        ],
        "code": {
          "coding": [
            {
              "system": "http://loinc.org",
              "code": "62854-5",
              "display": "PhenX - glycosylated hemoglobin assay reflecting long-term glucose concentration protocol 140901"
            }
          ],
          "text": "Hemoglobin"
        },
        "subject": {
          "reference": "Patient/de80c3cd-ced9-41fb-beb1-a6be68d4ce05"
        },
        "encounter": {
          "reference": "Encounter/cc0b077b-105d-43b1-a4d1-d9942a6afdcc"
        },
        "effectiveDateTime": "2025-10-16",
        "valueQuantity": {
          "value": 12.1,
          "unit": "g/dL",
          "system": "http://unitsofmeasure.org",
          "code": "g/dL"
        },
        "interpretation": [
          {
            "coding": [
              {
                "system": "http://terminology.hl7.org/CodeSystem/v3-ObservationInterpretation",
                "code": "L",
                "display": "Low"
              }
            ]
          }
        ],
        "note": [
          {
            "text": "Definition: https://loinc.org/62854-5/"
          }
        ]
      },
      "request": {
        "method": "POST",
        "url": "Observation"
      }
    },
    {
      "fullUrl": "urn:uuid:f965cd07-7e9b-4d77-ab89-0ef46744444f",
      "resource": {
        "resourceType": "Observation",
        "id": "f965cd07-7e9b-4d77-ab89-0ef46744444f",
        "status": "final",
        "category": [
          {
            "coding": [
              {
                "system": "http://terminology.hl7.org/CodeSystem/observation-category",
                "code": "laboratory",
                "display": "Laboratory"
              }
            ],
            "text": "Laboratory"
          }
        ],
        "code": {
          "coding": [
            {
              "system": "http://loinc.org",
              "code": "14196-0",
              "display": "Retics #"
            }
          ],
          "text": "Reticulocyte count"
        },
        "subject": {
          "reference": "Patient/de80c3cd-ced9-41fb-beb1-a6be68d4ce05"
        },
        "encounter": {
          "reference": "Encounter/cc0b077b-105d-43b1-a4d1-d9942a6afdcc"
        },
        "effectiveDateTime": "2025-10-16",
        "valueQuantity": {
          "value": 2.5,
          "unit": "%",
          "system": "http://unitsofmeasure.org",
          "code": "%"
        },
        "note": [
          {
            "text": "Definition: https://loinc.org/14196-0/"
          }
        ]
      },
      "request": {
        "method": "POST",
        "url": "Observation"
      }
    },
    {
      "fullUrl": "urn:uuid:f11edb5a-2835-4b46-a93d-40a90051cad2",
      "resource": {
        "resourceType": "Observation",
        "id": "f11edb5a-2835-4b46-a93d-40a90051cad2",
        "status": "final",
        "category": [
          {
            "coding": [
              {
                "system": "http://terminology.hl7.org/CodeSystem/observation-category",
                "code": "laboratory",
                "display": "Laboratory"
              }
            ],
            "text": "Laboratory"
          }
        ],
        "code": {
          "coding": [
            {
              "system": "http://loinc.org",
              "code": "2546-0",
              "display": "LDH4 SerPl-cCnc"
            }
          ],
          "text": "Lactate dehydrogenase (LDH)"
        },
        "subject": {
          "reference": "Patient/de80c3cd-ced9-41fb-beb1-a6be68d4ce05"
        },
        "encounter": {
          "reference": "Encounter/cc0b077b-105d-43b1-a4d1-d9942a6afdcc"
        },
        "effectiveDateTime": "2025-10-16",
        "valueQuantity": {
          "value": 245.0,
          "unit": "U/L",
          "system": "http://unitsofmeasure.org",
          "code": "U/L"
        },
        "interpretation": [
          {
            "coding": [
              {
                "system": "http://terminology.hl7.org/CodeSystem/v3-ObservationInterpretation",
                "code": "H",
                "display": "High"
              }
            ]
          }
        ],
        "note": [
          {
            "text": "Definition: https://loinc.org/2546-0/"
          }
        ]
      },
      "request": {
        "method": "POST",
        "url": "Observation"
      }
    },
    {
      "fullUrl": "urn:uuid:8b0d3aa7-c82d-4fee-a612-1826888f385b",
      "resource": {
        "resourceType": "Observation",
        "id": "8b0d3aa7-c82d-4fee-a612-1826888f385b",
        "status": "final",
        "category": [
          {
            "coding": [
              {
                "system": "http://terminology.hl7.org/CodeSystem/observation-category",
                "code": "laboratory",
                "display": "Laboratory"
              }
            ],
            "text": "Laboratory"
          }
        ],
        "code": {
          "coding": [
            {
              "system": "http://loinc.org",
              "code": "34543-9",
              "display": "Bilirubin direct & total panel"
            }
          ],
          "text": "Total bilirubin"
        },
        "subject": {
          "reference": "Patient/de80c3cd-ced9-41fb-beb1-a6be68d4ce05"
        },
        "encounter": {
          "reference": "Encounter/cc0b077b-105d-43b1-a4d1-d9942a6afdcc"
        },
        "effectiveDateTime": "2025-10-16",
        "valueQuantity": {
          "value": 1.2,
          "unit": "mg/dL",
          "system": "http://unitsofmeasure.org",
          "code": "mg/dL"
        },
        "note": [
          {
            "text": "Definition: https://loinc.org/34543-9/"
          }
        ]
      },
      "request": {
        "method": "POST",
        "url": "Observation"
      }
    },
    {
      "fullUrl": "urn:uuid:15199c87-30f9-499d-bd60-e9afbd3ca6f6",
      "resource": {
        "resourceType": "Observation",
        "id": "15199c87-30f9-499d-bd60-e9afbd3ca6f6",
        "status": "final",
        "category": [
          {
            "coding": [
              {
                "system": "http://terminology.hl7.org/CodeSystem/observation-category",
                "code": "laboratory",
                "display": "Laboratory"
              }
            ],
            "text": "Laboratory"
          }
        ],
        "code": {
          "coding": [
            {
              "system": "http://loinc.org",
              "code": "78442-1",
              "display": "Bilirub Indirect Prt-sCnc"
            }
          ],
          "text": "Indirect bilirubin"
        },
        "subject": {
          "reference": "Patient/de80c3cd-ced9-41fb-beb1-a6be68d4ce05"
        },
        "encounter": {
          "reference": "Encounter/cc0b077b-105d-43b1-a4d1-d9942a6afdcc"
        },
        "effectiveDateTime": "2025-10-16",
        "valueQuantity": {
          "value": 0.8,
          "unit": "mg/dL",
          "system": "http://unitsofmeasure.org",
          "code": "mg/dL"
        },
        "note": [
          {
            "text": "Definition: https://loinc.org/78442-1/"
          }
        ]
      },
      "request": {
        "method": "POST",
        "url": "Observation"
      }
    },
    {
      "fullUrl": "urn:uuid:9e9670ce-88fb-40db-9066-82cbc394ba97",
      "resource": {
        "resourceType": "Observation",
        "id": "9e9670ce-88fb-40db-9066-82cbc394ba97",
        "status": "final",
        "category": [
          {
            "coding": [
              {
                "system": "http://terminology.hl7.org/CodeSystem/observation-category",
                "code": "exam",
                "display": "Exam"
              }
            ],
            "text": "Exam"
          }
        ],
        "code": {
          "coding": [
            {
              "system": "http://snomed.info/sct",
              "code": "39575007",
              "display": "Urine looks dark"
            }
          ],
          "text": "Dark urine"
        },
        "subject": {
          "reference": "Patient/de80c3cd-ced9-41fb-beb1-a6be68d4ce05"
        },
        "encounter": {
          "reference": "Encounter/cc0b077b-105d-43b1-a4d1-d9942a6afdcc"
        },
        "effectivePeriod": {
          "start": "2025-10-16"
        },
        "valueBoolean": true,
        "note": [
          {
            "text": "Definition: https://snomed.info/id/39575007"
          }
        ]
      },
      "request": {
        "method": "POST",
        "url": "Observation"
      }
    },
    {
      "fullUrl": "urn:uuid:8f5ded46-be2c-47e8-95b1-bae9d39ec0f6",
      "resource": {
        "resourceType": "Observation",
        "id": "8f5ded46-be2c-47e8-95b1-bae9d39ec0f6",
        "status": "final",
        "category": [
          {
            "coding": [
              {
                "system": "http://terminology.hl7.org/CodeSystem/observation-category",
                "code": "exam",
                "display": "Exam"
              }
            ],
            "text": "Exam"
          }
        ],
        "code": {
          "coding": [
            {
              "system": "http://snomed.info/sct",
              "code": "84229001",
              "display": "Fatigue"
            }
          ],
          "text": "Fatigue"
        },
        "subject": {
          "reference": "Patient/de80c3cd-ced9-41fb-beb1-a6be68d4ce05"
        },
        "encounter": {
          "reference": "Encounter/cc0b077b-105d-43b1-a4d1-d9942a6afdcc"
        },
        "effectivePeriod": {
          "start": "2025-10-16"
        },
        "valueBoolean": true,
        "note": [
          {
            "text": "Definition: https://snomed.info/id/84229001"
          }
        ]
      },
      "request": {
        "method": "POST",
        "url": "Observation"
      }
    },
    {
      "fullUrl": "urn:uuid:22e01523-8924-4a7e-a3ef-e56cba37de32",
      "resource": {
        "resourceType": "Observation",
        "id": "22e01523-8924-4a7e-a3ef-e56cba37de32",
        "status": "final",
        "category": [
          {
            "coding": [
              {
                "system": "http://terminology.hl7.org/CodeSystem/observation-category",
                "code": "vital-signs",
                "display": "Vital Signs"
              }
            ],
            "text": "Vital Signs"
          }
        ],
        "code": {
          "coding": [
            {
              "system": "http://loinc.org",
              "code": "8310-5",
              "display": "Body temperature"
            }
          ],
          "text": "temperature"
        },
        "subject": {
          "reference": "Patient/de80c3cd-ced9-41fb-beb1-a6be68d4ce05"
        },
        "encounter": {
          "reference": "Encounter/cc0b077b-105d-43b1-a4d1-d9942a6afdcc"
        },
        "effectiveDateTime": "2025-10-16",
        "valueQuantity": {
          "value": 36.8,
          "unit": "degrees Celsius",
          "system": "http://unitsofmeasure.org",
          "code": "degrees Celsius"
        },
        "interpretation": [
          {
            "coding": [
              {
                "system": "http://terminology.hl7.org/CodeSystem/v3-ObservationInterpretation",
                "code": "N",
                "display": "Normal"
              }
            ],
            "text": "Normal"
          }
        ]
      },
      "request": {
        "method": "POST",
        "url": "Observation"
      }
    },
    {
      "fullUrl": "urn:uuid:f796e470-6671-45f2-a960-07991d597c9a",
      "resource": {
        "resourceType": "Observation",
        "id": "f796e470-6671-45f2-a960-07991d597c9a",
        "status": "final",
        "category": [
          {
            "coding": [
              {
                "system": "http://terminology.hl7.org/CodeSystem/observation-category",
                "code": "vital-signs",
                "display": "Vital Signs"
              }
            ],
            "text": "Vital Signs"
          }
        ],
        "code": {
          "coding": [
            {
              "system": "http://loinc.org",
              "code": "62733-1",
              "display": "PhenX - respiratory - pulse oximetry - rest protocol 091101"
            }
          ],
          "text": "pulse"
        },
        "subject": {
          "reference": "Patient/de80c3cd-ced9-41fb-beb1-a6be68d4ce05"
        },
        "encounter": {
          "reference": "Encounter/cc0b077b-105d-43b1-a4d1-d9942a6afdcc"
        },
        "effectiveDateTime": "2025-10-16",
        "valueQuantity": {
          "value": 72.0,
          "unit": "bpm",
          "system": "http://unitsofmeasure.org",
          "code": "bpm"
        },
        "interpretation": [
          {
            "coding": [
              {
                "system": "http://terminology.hl7.org/CodeSystem/v3-ObservationInterpretation",
                "code": "N",
                "display": "Normal"
              }
            ],
            "text": "Normal"
          }
        ]
      },
      "request": {
        "method": "POST",
        "url": "Observation"
      }
    },
    {
      "fullUrl": "urn:uuid:c1c8a51a-a132-4ea3-92db-8c33535cc3fa",
      "resource": {
        "resourceType": "Observation",
        "id": "c1c8a51a-a132-4ea3-92db-8c33535cc3fa",
        "status": "final",
        "category": [
          {
            "coding": [
              {
                "system": "http://terminology.hl7.org/CodeSystem/observation-category",
                "code": "vital-signs",
                "display": "Vital Signs"
              }
            ],
            "text": "Vital Signs"
          }
        ],
        "code": {
          "coding": [
            {
              "system": "http://loinc.org",
              "code": "18684-1",
              "display": "Blood pressure"
            }
          ],
          "text": "blood pressure"
        },
        "subject": {
          "reference": "Patient/de80c3cd-ced9-41fb-beb1-a6be68d4ce05"
        },
        "encounter": {
          "reference": "Encounter/cc0b077b-105d-43b1-a4d1-d9942a6afdcc"
        },
        "effectiveDateTime": "2025-10-16",
        "interpretation": [
          {
            "coding": [
              {
                "system": "http://terminology.hl7.org/CodeSystem/v3-ObservationInterpretation",
                "code": "N",
                "display": "Normal"
              }
            ],
            "text": "Normal"
          }
        ]
      },
      "request": {
        "method": "POST",
        "url": "Observation"
      }
    },
    {
      "fullUrl": "urn:uuid:2df8df7f-98a3-4738-9b30-85b7735155fa",
      "resource": {
        "resourceType": "Observation",
        "id": "2df8df7f-98a3-4738-9b30-85b7735155fa",
        "status": "final",
        "category": [
          {
            "coding": [
              {
                "system": "http://terminology.hl7.org/CodeSystem/observation-category",
                "code": "vital-signs",
                "display": "Vital Signs"
              }
            ],
            "text": "Vital Signs"
          }
        ],
        "code": {
          "coding": [
            {
              "system": "http://loinc.org",
              "code": "9279-1",
              "display": "Resp rate"
            }
          ],
          "text": "respiratory rate"
        },
        "subject": {
          "reference": "Patient/de80c3cd-ced9-41fb-beb1-a6be68d4ce05"
        },
        "encounter": {
          "reference": "Encounter/cc0b077b-105d-43b1-a4d1-d9942a6afdcc"
        },
        "effectiveDateTime": "2025-10-16",
        "valueQuantity": {
          "value": 16.0,
          "unit": "breaths per minute",
          "system": "http://unitsofmeasure.org",
          "code": "breaths per minute"
        },
        "interpretation": [
          {
            "coding": [
              {
                "system": "http://terminology.hl7.org/CodeSystem/v3-ObservationInterpretation",
                "code": "N",
                "display": "Normal"
              }
            ],
            "text": "Normal"
          }
        ]
      },
      "request": {
        "method": "POST",
        "url": "Observation"
      }
    },
    {
      "fullUrl": "urn:uuid:95f47a6a-d988-43d2-ba5f-4b818e31becc",
      "resource": {
        "resourceType": "Observation",
        "id": "95f47a6a-d988-43d2-ba5f-4b818e31becc",
        "status": "final",
        "category": [
          {
            "coding": [
              {
                "system": "http://terminology.hl7.org/CodeSystem/observation-category",
                "code": "vital-signs",
                "display": "Vital Signs"
              }
            ],
            "text": "Vital Signs"
          }
        ],
        "code": {
          "coding": [
            {
              "system": "http://loinc.org",
              "code": "2717-7",
              "display": "OxyHgb MFr Plas"
            }
          ],
          "text": "oxygen saturation"
        },
        "subject": {
          "reference": "Patient/de80c3cd-ced9-41fb-beb1-a6be68d4ce05"
        },
        "encounter": {
          "reference": "Encounter/cc0b077b-105d-43b1-a4d1-d9942a6afdcc"
        },
        "effectiveDateTime": "2025-10-16",
        "valueQuantity": {
          "value": 98.0,
          "unit": "%",
          "system": "http://unitsofmeasure.org",
          "code": "%"
        },
        "interpretation": [
          {
            "coding": [
              {
                "system": "http://terminology.hl7.org/CodeSystem/v3-ObservationInterpretation",
                "code": "N",
                "display": "Normal"
              }
            ],
            "text": "Normal"
          }
        ]
      },
      "request": {
        "method": "POST",
        "url": "Observation"
      }
    },
    {
      "fullUrl": "urn:uuid:59df343a-f39c-430d-9c8c-aa68adf5ce6d",
      "resource": {
        "resourceType": "Observation",
        "id": "59df343a-f39c-430d-9c8c-aa68adf5ce6d",
        "status": "final",
        "category": [
          {
            "coding": [
              {
                "system": "http://terminology.hl7.org/CodeSystem/observation-category",
                "code": "vital-signs",
                "display": "Vital Signs"
              }
            ],
            "text": "Vital Signs"
          }
        ],
        "code": {
          "coding": [
            {
              "system": "http://loinc.org",
              "code": "8337-8",
              "display": "Bdy weight special circumstances"
            }
          ],
          "text": "weight"
        },
        "subject": {
          "reference": "Patient/de80c3cd-ced9-41fb-beb1-a6be68d4ce05"
        },
        "encounter": {
          "reference": "Encounter/cc0b077b-105d-43b1-a4d1-d9942a6afdcc"
        },
        "effectiveDateTime": "2025-10-16",
        "valueQuantity": {
          "value": 62.0,
          "unit": "kg",
          "system": "http://unitsofmeasure.org",
          "code": "kg"
        }
      },
      "request": {
        "method": "POST",
        "url": "Observation"
      }
    },
    {
      "fullUrl": "urn:uuid:9a85dd6e-07c4-4b71-8c13-b20846960a91",
      "resource": {
        "resourceType": "Observation",
        "id": "9a85dd6e-07c4-4b71-8c13-b20846960a91",
        "status": "final",
        "category": [
          {
            "coding": [
              {
                "system": "http://terminology.hl7.org/CodeSystem/observation-category",
                "code": "vital-signs",
                "display": "Vital Signs"
              }
            ],
            "text": "Vital Signs"
          }
        ],
        "code": {
          "coding": [
            {
              "system": "http://loinc.org",
              "code": "92998-4",
              "display": "Lower segment"
            }
          ],
          "text": "height"
        },
        "subject": {
          "reference": "Patient/de80c3cd-ced9-41fb-beb1-a6be68d4ce05"
        },
        "encounter": {
          "reference": "Encounter/cc0b077b-105d-43b1-a4d1-d9942a6afdcc"
        },
        "effectiveDateTime": "2025-10-16",
        "valueQuantity": {
          "value": 165.0,
          "unit": "cm",
          "system": "http://unitsofmeasure.org",
          "code": "cm"
        }
      },
      "request": {
        "method": "POST",
        "url": "Observation"
      }
    },
    {
      "fullUrl": "urn:uuid:20246fba-7144-4ccc-98f3-b29339097c28",
      "resource": {
        "resourceType": "Observation",
        "id": "20246fba-7144-4ccc-98f3-b29339097c28",
        "status": "final",
        "category": [
          {
            "coding": [
              {
                "system": "http://terminology.hl7.org/CodeSystem/observation-category",
                "code": "vital-signs",
                "display": "Vital Signs"
              }
            ],
            "text": "Vital Signs"
          }
        ],
        "code": {
          "coding": [
            {
              "system": "http://loinc.org",
              "code": "107102-6",
              "display": "BMI formula"
            }
          ],
          "text": "BMI"
        },
        "subject": {
          "reference": "Patient/de80c3cd-ced9-41fb-beb1-a6be68d4ce05"
        },
        "encounter": {
          "reference": "Encounter/cc0b077b-105d-43b1-a4d1-d9942a6afdcc"
        },
        "effectiveDateTime": "2025-10-16",
        "valueQuantity": {
          "value": 22.8,
          "unit": "kg/m²",
          "system": "http://unitsofmeasure.org",
          "code": "kg/m²"
        },
        "interpretation": [
          {
            "coding": [
              {
                "system": "http://terminology.hl7.org/CodeSystem/v3-ObservationInterpretation",
                "code": "N",
                "display": "Normal"
              }
            ],
            "text": "Normal"
          }
        ]
      },
      "request": {
        "method": "POST",
        "url": "Observation"
      }
    },
    {
      "fullUrl": "urn:uuid:059cecb3-6408-496e-b4bb-695b105d418b",
      "resource": {
        "resourceType": "Encounter",
        "id": "059cecb3-6408-496e-b4bb-695b105d418b",
        "identifier": [
          {
            "use": "temp",
            "value": "Encounter_Elena Vasquez_20251021094101"
          }
        ],
        "status": "completed",
        "priority": {
          "coding": [
            {
              "system": "http://snomed.info/sct",
              "code": "17621005",
              "display": "Normal"
            }
          ]
        },
        "type": [
          {
            "coding": [
              {
                "system": "http://snomed.info/sct",
                "code": "11429006",
                "display": "Consultation"
              }
            ]
          }
        ],
        "subject": {
          "reference": "Patient/de80c3cd-ced9-41fb-beb1-a6be68d4ce05",
          "display": "Elena Vasquez"
        },
        "reason": [
          {
            "value": [
              {
                "concept": {
                  "text": "similar episode of dark urine"
                }
              }
            ]
          }
        ]
      },
      "request": {
        "method": "POST",
        "url": "Encounter"
      }
    },
    {
      "fullUrl": "urn:uuid:8cbaa0fb-51ac-4cad-9185-60c9dafbcbaf",
      "resource": {
        "resourceType": "Observation",
        "id": "8cbaa0fb-51ac-4cad-9185-60c9dafbcbaf",
        "status": "final",
        "category": [
          {
            "coding": [
              {
                "system": "http://terminology.hl7.org/CodeSystem/observation-category",
                "code": "exam",
                "display": "Exam"
              }
            ],
            "text": "Exam"
          }
        ],
        "code": {
          "coding": [
            {
              "system": "http://snomed.info/sct",
              "code": "39575007",
              "display": "Urine looks dark"
            }
          ],
          "text": "Dark urine"
        },
        "subject": {
          "reference": "Patient/de80c3cd-ced9-41fb-beb1-a6be68d4ce05"
        },
        "encounter": {
          "reference": "Encounter/059cecb3-6408-496e-b4bb-695b105d418b"
        },
        "effectivePeriod": {
          "start": "2025-08-16"
        },
        "valueBoolean": true,
        "note": [
          {
            "text": "Definition: https://snomed.info/id/39575007"
          }
        ]
      },
      "request": {
        "method": "POST",
        "url": "Observation"
      }
    },
    {
      "fullUrl": "urn:uuid:24a74c0d-8c2f-4e9e-a47f-ebc8dc70961e",
      "resource": {
        "resourceType": "List",
        "id": "24a74c0d-8c2f-4e9e-a47f-ebc8dc70961e",
        "contained": [
          {
            "resourceType": "FamilyMemberHistory",
            "id": "fmh-2",
            "status": "completed",
            "patient": {
              "reference": "Patient/de80c3cd-ced9-41fb-beb1-a6be68d4ce05"
            },
            "relationship": {
              "coding": [
                {
                  "system": "http://snomed.info/sct",
                  "code": "66839005",
                  "display": "Father"
                }
              ]
            },
            "deceasedBoolean": false,
            "condition": []
          }
        ],
        "status": "current",
        "mode": "snapshot",
        "code": {
          "coding": [
            {
              "system": "http://loinc.org",
              "code": "8670-2",
              "display": "History of family member diseases"
            }
          ]
        },
        "subject": [
          {
            "reference": "Patient/de80c3cd-ced9-41fb-beb1-a6be68d4ce05"
          }
        ],
        "note": [
          {
            "text": "Both parents are alive and healthy, with no known family history of hematological disorders"
          }
        ],
        "entry": [
          {
            "item": {
              "reference": "#fmh-2"
            }
          }
        ]
      },
      "request": {
        "method": "POST",
        "url": "FamilyMemberHistory"
      }
    }
  ]
}