{
  "resourceType": "Bundle",
  "type": "transaction",
  "entry": [
    {
      "fullUrl": "urn:uuid:21259220-8f24-4db7-bad7-f52e0f337669",
      "resource": {
        "resourceType": "Patient",
        "id": "21259220-8f24-4db7-bad7-f52e0f337669",
        "name": [
          {
            "family": "Kovalchuk",
            "given": [
              "Irina"
            ]
          }
        ],
        "gender": "female",
        "birthDate": "1995-07-04",
        "address": [
          {}
        ]
      },
      "request": {
        "method": "POST",
        "url": "Patient"
      }
    },
    {
      "fullUrl": "urn:uuid:52fd332f-c643-4333-9cfe-3b1eabe0bc98",
      "resource": {
        "resourceType": "Encounter",
        "id": "52fd332f-c643-4333-9cfe-3b1eabe0bc98",
        "identifier": [
          {
            "use": "temp",
            "value": "Encounter_Irina Kovalchuk_20251020131933"
          }
        ],
        "status": "completed",
        "priority": {
          "coding": [
            {
              "system": "http://snomed.info/sct",
              "code": "17621005",
              "display": "Normal"
            }
          ]
        },
        "type": [
          {
            "coding": [
              {
                "system": "http://snomed.info/sct",
                "code": "11429006",
                "display": "Consultation"
              }
            ]
          }
        ],
        "subject": {
          "reference": "Patient/21259220-8f24-4db7-bad7-f52e0f337669",
          "display": "Irina Kovalchuk"
        },
        "reason": [
          {
            "value": [
              {
                "concept": {
                  "text": "increasing fatigue and intermittent dark urine"
                }
              }
            ]
          }
        ]
      },
      "request": {
        "method": "POST",
        "url": "Encounter"
      }
    },
    {
      "fullUrl": "urn:uuid:df6d1a28-857c-4163-8761-d2224f2ccd6c",
      "resource": {
        "resourceType": "Observation",
        "id": "df6d1a28-857c-4163-8761-d2224f2ccd6c",
        "status": "final",
        "category": [
          {
            "coding": [
              {
                "system": "http://terminology.hl7.org/CodeSystem/observation-category",
                "code": "laboratory",
                "display": "Laboratory"
              }
            ],
            "text": "Laboratory"
          }
        ],
        "code": {
          "coding": [
            {
              "system": "http://loinc.org",
              "code": "2546-0",
              "display": "LDH4 SerPl-cCnc"
            }
          ],
          "text": "LDH"
        },
        "subject": {
          "reference": "Patient/21259220-8f24-4db7-bad7-f52e0f337669"
        },
        "encounter": {
          "reference": "Encounter/52fd332f-c643-4333-9cfe-3b1eabe0bc98"
        },
        "effectiveDateTime": "2025-10-16",
        "interpretation": [
          {
            "coding": [
              {
                "system": "http://terminology.hl7.org/CodeSystem/v3-ObservationInterpretation",
                "code": "H",
                "display": "High"
              }
            ]
          }
        ],
        "note": [
          {
            "text": "Definition: https://loinc.org/2546-0/"
          }
        ]
      },
      "request": {
        "method": "POST",
        "url": "Observation"
      }
    },
    {
      "fullUrl": "urn:uuid:60c614f2-2866-4fae-a839-083151aa4cf2",
      "resource": {
        "resourceType": "Observation",
        "id": "60c614f2-2866-4fae-a839-083151aa4cf2",
        "status": "final",
        "category": [
          {
            "coding": [
              {
                "system": "http://terminology.hl7.org/CodeSystem/observation-category",
                "code": "laboratory",
                "display": "Laboratory"
              }
            ],
            "text": "Laboratory"
          }
        ],
        "code": {
          "coding": [
            {
              "system": "http://loinc.org",
              "code": "74775-8",
              "display": "Platelet # PRP Auto"
            }
          ],
          "text": "Platelet count"
        },
        "subject": {
          "reference": "Patient/21259220-8f24-4db7-bad7-f52e0f337669"
        },
        "encounter": {
          "reference": "Encounter/52fd332f-c643-4333-9cfe-3b1eabe0bc98"
        },
        "effectiveDateTime": "2025-10-16",
        "interpretation": [
          {
            "coding": [
              {
                "system": "http://terminology.hl7.org/CodeSystem/v3-ObservationInterpretation",
                "code": "L",
                "display": "Low"
              }
            ]
          }
        ],
        "note": [
          {
            "text": "Definition: https://loinc.org/74775-8/"
          }
        ]
      },
      "request": {
        "method": "POST",
        "url": "Observation"
      }
    },
    {
      "fullUrl": "urn:uuid:95e0a45f-6740-4cff-8404-4d9b413c6f71",
      "resource": {
        "resourceType": "Observation",
        "id": "95e0a45f-6740-4cff-8404-4d9b413c6f71",
        "status": "final",
        "category": [
          {
            "coding": [
              {
                "system": "http://terminology.hl7.org/CodeSystem/observation-category",
                "code": "exam",
                "display": "Exam"
              }
            ],
            "text": "Exam"
          }
        ],
        "code": {
          "coding": [
            {
              "system": "http://snomed.info/sct",
              "code": "84229001",
              "display": "Fatigue"
            }
          ],
          "text": "Fatigue"
        },
        "subject": {
          "reference": "Patient/21259220-8f24-4db7-bad7-f52e0f337669"
        },
        "encounter": {
          "reference": "Encounter/52fd332f-c643-4333-9cfe-3b1eabe0bc98"
        },
        "effectivePeriod": {
          "start": "2025-10-16"
        },
        "valueBoolean": true,
        "note": [
          {
            "text": "Definition: https://snomed.info/id/84229001"
          }
        ]
      },
      "request": {
        "method": "POST",
        "url": "Observation"
      }
    },
    {
      "fullUrl": "urn:uuid:316147ef-1832-450e-8992-e2b1774a20f0",
      "resource": {
        "resourceType": "Observation",
        "id": "316147ef-1832-450e-8992-e2b1774a20f0",
        "status": "final",
        "category": [
          {
            "coding": [
              {
                "system": "http://terminology.hl7.org/CodeSystem/observation-category",
                "code": "exam",
                "display": "Exam"
              }
            ],
            "text": "Exam"
          }
        ],
        "code": {
          "coding": [
            {
              "system": "http://snomed.info/sct",
              "code": "39575007",
              "display": "Urine looks dark"
            }
          ],
          "text": "Dark urine"
        },
        "subject": {
          "reference": "Patient/21259220-8f24-4db7-bad7-f52e0f337669"
        },
        "encounter": {
          "reference": "Encounter/52fd332f-c643-4333-9cfe-3b1eabe0bc98"
        },
        "effectivePeriod": {
          "start": "2025-10-16"
        },
        "valueBoolean": true,
        "note": [
          {
            "text": "Definition: https://snomed.info/id/39575007"
          }
        ]
      },
      "request": {
        "method": "POST",
        "url": "Observation"
      }
    },
    {
      "fullUrl": "urn:uuid:30aecdd7-0754-4c35-9497-7187ccce0ec7",
      "resource": {
        "resourceType": "Observation",
        "id": "30aecdd7-0754-4c35-9497-7187ccce0ec7",
        "status": "final",
        "category": [
          {
            "coding": [
              {
                "system": "http://terminology.hl7.org/CodeSystem/observation-category",
                "code": "exam",
                "display": "Exam"
              }
            ],
            "text": "Exam"
          }
        ],
        "code": {
          "coding": [
            {
              "system": "http://snomed.info/sct",
              "code": "135833008",
              "display": "CLASP shortness of breath score"
            }
          ],
          "text": "Shortness of breath"
        },
        "subject": {
          "reference": "Patient/21259220-8f24-4db7-bad7-f52e0f337669"
        },
        "encounter": {
          "reference": "Encounter/52fd332f-c643-4333-9cfe-3b1eabe0bc98"
        },
        "effectivePeriod": {
          "start": "2025-10-16"
        },
        "valueBoolean": true,
        "note": [
          {
            "text": "Definition: https://snomed.info/id/135833008"
          }
        ]
      },
      "request": {
        "method": "POST",
        "url": "Observation"
      }
    },
    {
      "fullUrl": "urn:uuid:94ecbeb3-dbff-49c6-a085-04df13e5dd46",
      "resource": {
        "resourceType": "Observation",
        "id": "94ecbeb3-dbff-49c6-a085-04df13e5dd46",
        "status": "final",
        "category": [
          {
            "coding": [
              {
                "system": "http://terminology.hl7.org/CodeSystem/observation-category",
                "code": "vital-signs",
                "display": "Vital Signs"
              }
            ],
            "text": "Vital Signs"
          }
        ],
        "code": {
          "coding": [
            {
              "system": "http://loinc.org",
              "code": "unknown",
              "display": "Pallor"
            }
          ],
          "text": "Pallor"
        },
        "subject": {
          "reference": "Patient/21259220-8f24-4db7-bad7-f52e0f337669"
        },
        "encounter": {
          "reference": "Encounter/52fd332f-c643-4333-9cfe-3b1eabe0bc98"
        },
        "effectiveDateTime": "2025-10-16",
        "interpretation": [
          {
            "coding": [
              {
                "system": "http://terminology.hl7.org/CodeSystem/v3-ObservationInterpretation",
                "code": "A",
                "display": "Abnormal"
              }
            ],
            "text": "Abnormal"
          }
        ]
      },
      "request": {
        "method": "POST",
        "url": "Observation"
      }
    },
    {
      "fullUrl": "urn:uuid:6aa9fe98-0100-4e72-8f61-0dd4571a72f8",
      "resource": {
        "resourceType": "List",
        "id": "6aa9fe98-0100-4e72-8f61-0dd4571a72f8",
        "contained": [
          {
            "resourceType": "FamilyMemberHistory",
            "id": "fmh-1",
            "status": "completed",
            "patient": {
              "reference": "Patient/21259220-8f24-4db7-bad7-f52e0f337669"
            },
            "relationship": {
              "coding": [
                {
                  "system": "http://snomed.info/sct",
                  "code": "55538000",
                  "display": "Cousin"
                }
              ]
            },
            "deceasedBoolean": false,
            "condition": [
              {
                "code": {
                  "coding": [
                    {
                      "system": "http://snomed.info/sct",
                      "code": "237145004",
                      "display": "Unexplained infertility"
                    }
                  ]
                }
              }
            ]
          }
        ],
        "status": "current",
        "mode": "snapshot",
        "code": {
          "coding": [
            {
              "system": "http://loinc.org",
              "code": "8670-2",
              "display": "History of family member diseases"
            }
          ]
        },
        "subject": [
          {
            "reference": "Patient/21259220-8f24-4db7-bad7-f52e0f337669"
          }
        ],
        "entry": [
          {
            "item": {
              "reference": "#fmh-1"
            }
          }
        ]
      },
      "request": {
        "method": "POST",
        "url": "FamilyMemberHistory"
      }
    }
  ]
}