{
  "resourceType": "Bundle",
  "type": "transaction",
  "entry": [
    {
      "fullUrl": "urn:uuid:83177ce2-83b7-4393-b618-18c4cff10cdb",
      "resource": {
        "resourceType": "Patient",
        "id": "83177ce2-83b7-4393-b618-18c4cff10cdb",
        "name": [
          {
            "family": "Wilson",
            "given": [
              "Emily"
            ]
          }
        ],
        "gender": "female",
        "birthDate": "2000-07-12",
        "address": [
          {}
        ]
      },
      "request": {
        "method": "POST",
        "url": "Patient"
      }
    },
    {
      "fullUrl": "urn:uuid:b97eedd6-3a77-4b9e-90c5-b11a8333e817",
      "resource": {
        "resourceType": "Encounter",
        "id": "b97eedd6-3a77-4b9e-90c5-b11a8333e817",
        "identifier": [
          {
            "use": "temp",
            "value": "Encounter_Emily Wilson_20251023095238"
          }
        ],
        "status": "completed",
        "priority": {
          "coding": [
            {
              "system": "http://snomed.info/sct",
              "code": "17621005",
              "display": "Normal"
            }
          ]
        },
        "type": [
          {
            "coding": [
              {
                "system": "http://snomed.info/sct",
                "code": "11429006",
                "display": "Consultation"
              }
            ]
          }
        ],
        "subject": {
          "reference": "Patient/83177ce2-83b7-4393-b618-18c4cff10cdb",
          "display": "Emily Wilson"
        },
        "reason": [
          {
            "value": [
              {
                "concept": {
                  "text": "complaints of fatigue and mild tremors"
                }
              }
            ]
          }
        ]
      },
      "request": {
        "method": "POST",
        "url": "Encounter"
      }
    },
    {
      "fullUrl": "urn:uuid:3b3ac7b4-62d7-4b9b-a0e3-0fe38d9f8a15",
      "resource": {
        "resourceType": "Observation",
        "id": "3b3ac7b4-62d7-4b9b-a0e3-0fe38d9f8a15",
        "status": "final",
        "category": [
          {
            "coding": [
              {
                "system": "http://terminology.hl7.org/CodeSystem/observation-category",
                "code": "laboratory",
                "display": "Laboratory"
              }
            ],
            "text": "Laboratory"
          }
        ],
        "code": {
          "coding": [
            {
              "system": "http://loinc.org",
              "code": "2064-4",
              "display": "Ceruloplasmin SerPl-mCnc"
            }
          ],
          "text": "Serum Ceruloplasmin"
        },
        "subject": {
          "reference": "Patient/83177ce2-83b7-4393-b618-18c4cff10cdb"
        },
        "encounter": {
          "reference": "Encounter/b97eedd6-3a77-4b9e-90c5-b11a8333e817"
        },
        "effectiveDateTime": "2025-10-16",
        "valueQuantity": {
          "value": 15.0,
          "unit": "mg/dL",
          "system": "http://unitsofmeasure.org",
          "code": "mg/dL"
        },
        "interpretation": [
          {
            "coding": [
              {
                "system": "http://terminology.hl7.org/CodeSystem/v3-ObservationInterpretation",
                "code": "L",
                "display": "Low"
              }
            ]
          }
        ],
        "note": [
          {
            "text": "Definition: https://loinc.org/2064-4/"
          }
        ]
      },
      "request": {
        "method": "POST",
        "url": "Observation"
      }
    },
    {
      "fullUrl": "urn:uuid:6f143cbf-e1b8-458d-8d1e-f45c8c8b19db",
      "resource": {
        "resourceType": "Observation",
        "id": "6f143cbf-e1b8-458d-8d1e-f45c8c8b19db",
        "status": "final",
        "category": [
          {
            "coding": [
              {
                "system": "http://terminology.hl7.org/CodeSystem/observation-category",
                "code": "laboratory",
                "display": "Laboratory"
              }
            ],
            "text": "Laboratory"
          }
        ],
        "code": {
          "coding": [
            {
              "system": "http://loinc.org",
              "code": "5633-3",
              "display": "Copper 24h Ur-mRate"
            }
          ],
          "text": "24-hour Urine Copper"
        },
        "subject": {
          "reference": "Patient/83177ce2-83b7-4393-b618-18c4cff10cdb"
        },
        "encounter": {
          "reference": "Encounter/b97eedd6-3a77-4b9e-90c5-b11a8333e817"
        },
        "effectiveDateTime": "2025-10-16",
        "valueQuantity": {
          "value": 50.0,
          "unit": "micrograms",
          "system": "http://unitsofmeasure.org",
          "code": "micrograms"
        },
        "interpretation": [
          {
            "coding": [
              {
                "system": "http://terminology.hl7.org/CodeSystem/v3-ObservationInterpretation",
                "code": "H",
                "display": "High"
              }
            ]
          }
        ],
        "note": [
          {
            "text": "Definition: https://loinc.org/5633-3/"
          }
        ]
      },
      "request": {
        "method": "POST",
        "url": "Observation"
      }
    },
    {
      "fullUrl": "urn:uuid:35ddd544-a572-4e15-bdeb-a0b500c3ba9b",
      "resource": {
        "resourceType": "Observation",
        "id": "35ddd544-a572-4e15-bdeb-a0b500c3ba9b",
        "status": "final",
        "category": [
          {
            "coding": [
              {
                "system": "http://terminology.hl7.org/CodeSystem/observation-category",
                "code": "exam",
                "display": "Exam"
              }
            ],
            "text": "Exam"
          }
        ],
        "code": {
          "coding": [
            {
              "system": "http://snomed.info/sct",
              "code": "84229001",
              "display": "Fatigue"
            }
          ],
          "text": "Fatigue"
        },
        "subject": {
          "reference": "Patient/83177ce2-83b7-4393-b618-18c4cff10cdb"
        },
        "encounter": {
          "reference": "Encounter/b97eedd6-3a77-4b9e-90c5-b11a8333e817"
        },
        "effectivePeriod": {
          "start": "2025-10-16"
        },
        "valueBoolean": true,
        "note": [
          {
            "text": "Definition: https://snomed.info/id/84229001"
          }
        ]
      },
      "request": {
        "method": "POST",
        "url": "Observation"
      }
    },
    {
      "fullUrl": "urn:uuid:24e5fc55-5e88-4fad-a913-d0eb13c93713",
      "resource": {
        "resourceType": "Observation",
        "id": "24e5fc55-5e88-4fad-a913-d0eb13c93713",
        "status": "final",
        "category": [
          {
            "coding": [
              {
                "system": "http://terminology.hl7.org/CodeSystem/observation-category",
                "code": "exam",
                "display": "Exam"
              }
            ],
            "text": "Exam"
          }
        ],
        "code": {
          "coding": [
            {
              "system": "http://snomed.info/sct",
              "code": "49958005",
              "display": "Aspergillus clavatus tremors"
            }
          ],
          "text": "Tremors"
        },
        "subject": {
          "reference": "Patient/83177ce2-83b7-4393-b618-18c4cff10cdb"
        },
        "encounter": {
          "reference": "Encounter/b97eedd6-3a77-4b9e-90c5-b11a8333e817"
        },
        "effectivePeriod": {
          "start": "2025-10-16"
        },
        "valueBoolean": true,
        "note": [
          {
            "text": "Definition: https://snomed.info/id/49958005"
          }
        ]
      },
      "request": {
        "method": "POST",
        "url": "Observation"
      }
    },
    {
      "fullUrl": "urn:uuid:d899a045-6207-4ece-8007-74042eeeae14",
      "resource": {
        "resourceType": "Observation",
        "id": "d899a045-6207-4ece-8007-74042eeeae14",
        "status": "final",
        "category": [
          {
            "coding": [
              {
                "system": "http://terminology.hl7.org/CodeSystem/observation-category",
                "code": "vital-signs",
                "display": "Vital Signs"
              }
            ],
            "text": "Vital Signs"
          }
        ],
        "code": {
          "coding": [
            {
              "system": "http://loinc.org",
              "code": "8310-5",
              "display": "Body temperature"
            }
          ],
          "text": "temperature"
        },
        "subject": {
          "reference": "Patient/83177ce2-83b7-4393-b618-18c4cff10cdb"
        },
        "encounter": {
          "reference": "Encounter/b97eedd6-3a77-4b9e-90c5-b11a8333e817"
        },
        "effectiveDateTime": "2025-10-16",
        "valueQuantity": {
          "value": 36.8,
          "unit": "degrees Celsius",
          "system": "http://unitsofmeasure.org",
          "code": "degrees Celsius"
        },
        "interpretation": [
          {
            "coding": [
              {
                "system": "http://terminology.hl7.org/CodeSystem/v3-ObservationInterpretation",
                "code": "N",
                "display": "Normal"
              }
            ],
            "text": "Normal"
          }
        ]
      },
      "request": {
        "method": "POST",
        "url": "Observation"
      }
    },
    {
      "fullUrl": "urn:uuid:26cb30dd-5236-4a8c-b241-dbdb843f50a4",
      "resource": {
        "resourceType": "Observation",
        "id": "26cb30dd-5236-4a8c-b241-dbdb843f50a4",
        "status": "final",
        "category": [
          {
            "coding": [
              {
                "system": "http://terminology.hl7.org/CodeSystem/observation-category",
                "code": "vital-signs",
                "display": "Vital Signs"
              }
            ],
            "text": "Vital Signs"
          }
        ],
        "code": {
          "coding": [
            {
              "system": "http://loinc.org",
              "code": "62733-1",
              "display": "PhenX - respiratory - pulse oximetry - rest protocol 091101"
            }
          ],
          "text": "pulse"
        },
        "subject": {
          "reference": "Patient/83177ce2-83b7-4393-b618-18c4cff10cdb"
        },
        "encounter": {
          "reference": "Encounter/b97eedd6-3a77-4b9e-90c5-b11a8333e817"
        },
        "effectiveDateTime": "2025-10-16",
        "valueQuantity": {
          "value": 72.0,
          "unit": "beats per minute",
          "system": "http://unitsofmeasure.org",
          "code": "beats per minute"
        },
        "interpretation": [
          {
            "coding": [
              {
                "system": "http://terminology.hl7.org/CodeSystem/v3-ObservationInterpretation",
                "code": "N",
                "display": "Normal"
              }
            ],
            "text": "Normal"
          }
        ]
      },
      "request": {
        "method": "POST",
        "url": "Observation"
      }
    },
    {
      "fullUrl": "urn:uuid:2ecdd212-516e-4b5b-ab23-0b74864e5bc8",
      "resource": {
        "resourceType": "Observation",
        "id": "2ecdd212-516e-4b5b-ab23-0b74864e5bc8",
        "status": "final",
        "category": [
          {
            "coding": [
              {
                "system": "http://terminology.hl7.org/CodeSystem/observation-category",
                "code": "vital-signs",
                "display": "Vital Signs"
              }
            ],
            "text": "Vital Signs"
          }
        ],
        "code": {
          "coding": [
            {
              "system": "http://loinc.org",
              "code": "18684-1",
              "display": "Blood pressure"
            }
          ],
          "text": "blood pressure"
        },
        "subject": {
          "reference": "Patient/83177ce2-83b7-4393-b618-18c4cff10cdb"
        },
        "encounter": {
          "reference": "Encounter/b97eedd6-3a77-4b9e-90c5-b11a8333e817"
        },
        "effectiveDateTime": "2025-10-16",
        "interpretation": [
          {
            "coding": [
              {
                "system": "http://terminology.hl7.org/CodeSystem/v3-ObservationInterpretation",
                "code": "N",
                "display": "Normal"
              }
            ],
            "text": "Normal"
          }
        ]
      },
      "request": {
        "method": "POST",
        "url": "Observation"
      }
    },
    {
      "fullUrl": "urn:uuid:5ee1a0bb-8f69-46a9-9e9e-3bb6c94d7341",
      "resource": {
        "resourceType": "Observation",
        "id": "5ee1a0bb-8f69-46a9-9e9e-3bb6c94d7341",
        "status": "final",
        "category": [
          {
            "coding": [
              {
                "system": "http://terminology.hl7.org/CodeSystem/observation-category",
                "code": "vital-signs",
                "display": "Vital Signs"
              }
            ],
            "text": "Vital Signs"
          }
        ],
        "code": {
          "coding": [
            {
              "system": "http://loinc.org",
              "code": "9279-1",
              "display": "Resp rate"
            }
          ],
          "text": "respiratory rate"
        },
        "subject": {
          "reference": "Patient/83177ce2-83b7-4393-b618-18c4cff10cdb"
        },
        "encounter": {
          "reference": "Encounter/b97eedd6-3a77-4b9e-90c5-b11a8333e817"
        },
        "effectiveDateTime": "2025-10-16",
        "valueQuantity": {
          "value": 16.0,
          "unit": "breaths per minute",
          "system": "http://unitsofmeasure.org",
          "code": "breaths per minute"
        },
        "interpretation": [
          {
            "coding": [
              {
                "system": "http://terminology.hl7.org/CodeSystem/v3-ObservationInterpretation",
                "code": "N",
                "display": "Normal"
              }
            ],
            "text": "Normal"
          }
        ]
      },
      "request": {
        "method": "POST",
        "url": "Observation"
      }
    },
    {
      "fullUrl": "urn:uuid:f4b937c5-87c1-4671-a9d8-619238b771a8",
      "resource": {
        "resourceType": "Observation",
        "id": "f4b937c5-87c1-4671-a9d8-619238b771a8",
        "status": "final",
        "category": [
          {
            "coding": [
              {
                "system": "http://terminology.hl7.org/CodeSystem/observation-category",
                "code": "vital-signs",
                "display": "Vital Signs"
              }
            ],
            "text": "Vital Signs"
          }
        ],
        "code": {
          "coding": [
            {
              "system": "http://loinc.org",
              "code": "8337-8",
              "display": "Bdy weight special circumstances"
            }
          ],
          "text": "weight"
        },
        "subject": {
          "reference": "Patient/83177ce2-83b7-4393-b618-18c4cff10cdb"
        },
        "encounter": {
          "reference": "Encounter/b97eedd6-3a77-4b9e-90c5-b11a8333e817"
        },
        "effectiveDateTime": "2025-10-16",
        "valueQuantity": {
          "value": 55.0,
          "unit": "kilograms",
          "system": "http://unitsofmeasure.org",
          "code": "kilograms"
        },
        "interpretation": [
          {
            "coding": [
              {
                "system": "http://terminology.hl7.org/CodeSystem/v3-ObservationInterpretation",
                "code": "N",
                "display": "Normal"
              }
            ],
            "text": "Normal"
          }
        ]
      },
      "request": {
        "method": "POST",
        "url": "Observation"
      }
    },
    {
      "fullUrl": "urn:uuid:261911a3-bebf-421b-8665-dac451ef1dc6",
      "resource": {
        "resourceType": "Observation",
        "id": "261911a3-bebf-421b-8665-dac451ef1dc6",
        "status": "final",
        "category": [
          {
            "coding": [
              {
                "system": "http://terminology.hl7.org/CodeSystem/observation-category",
                "code": "vital-signs",
                "display": "Vital Signs"
              }
            ],
            "text": "Vital Signs"
          }
        ],
        "code": {
          "coding": [
            {
              "system": "http://loinc.org",
              "code": "92998-4",
              "display": "Lower segment"
            }
          ],
          "text": "height"
        },
        "subject": {
          "reference": "Patient/83177ce2-83b7-4393-b618-18c4cff10cdb"
        },
        "encounter": {
          "reference": "Encounter/b97eedd6-3a77-4b9e-90c5-b11a8333e817"
        },
        "effectiveDateTime": "2025-10-16",
        "valueQuantity": {
          "value": 165.0,
          "unit": "centimeters",
          "system": "http://unitsofmeasure.org",
          "code": "centimeters"
        },
        "interpretation": [
          {
            "coding": [
              {
                "system": "http://terminology.hl7.org/CodeSystem/v3-ObservationInterpretation",
                "code": "N",
                "display": "Normal"
              }
            ],
            "text": "Normal"
          }
        ]
      },
      "request": {
        "method": "POST",
        "url": "Observation"
      }
    },
    {
      "fullUrl": "urn:uuid:33c1ff2b-23aa-47b6-adb9-d70e901f34c1",
      "resource": {
        "resourceType": "Observation",
        "id": "33c1ff2b-23aa-47b6-adb9-d70e901f34c1",
        "status": "final",
        "category": [
          {
            "coding": [
              {
                "system": "http://terminology.hl7.org/CodeSystem/observation-category",
                "code": "vital-signs",
                "display": "Vital Signs"
              }
            ],
            "text": "Vital Signs"
          }
        ],
        "code": {
          "coding": [
            {
              "system": "http://loinc.org",
              "code": "107102-6",
              "display": "BMI formula"
            }
          ],
          "text": "BMI"
        },
        "subject": {
          "reference": "Patient/83177ce2-83b7-4393-b618-18c4cff10cdb"
        },
        "encounter": {
          "reference": "Encounter/b97eedd6-3a77-4b9e-90c5-b11a8333e817"
        },
        "effectiveDateTime": "2025-10-16",
        "interpretation": [
          {
            "coding": [
              {
                "system": "http://terminology.hl7.org/CodeSystem/v3-ObservationInterpretation",
                "code": "N",
                "display": "Normal"
              }
            ],
            "text": "Normal"
          }
        ]
      },
      "request": {
        "method": "POST",
        "url": "Observation"
      }
    },
    {
      "fullUrl": "urn:uuid:d161a030-6e42-402e-a2c3-df85eb621e0f",
      "resource": {
        "resourceType": "Observation",
        "id": "d161a030-6e42-402e-a2c3-df85eb621e0f",
        "status": "final",
        "category": [
          {
            "coding": [
              {
                "system": "http://terminology.hl7.org/CodeSystem/observation-category",
                "code": "vital-signs",
                "display": "Vital Signs"
              }
            ],
            "text": "Vital Signs"
          }
        ],
        "code": {
          "coding": [
            {
              "system": "http://loinc.org",
              "code": "2717-7",
              "display": "OxyHgb MFr Plas"
            }
          ],
          "text": "oxygen saturation"
        },
        "subject": {
          "reference": "Patient/83177ce2-83b7-4393-b618-18c4cff10cdb"
        },
        "encounter": {
          "reference": "Encounter/b97eedd6-3a77-4b9e-90c5-b11a8333e817"
        },
        "effectiveDateTime": "2025-10-16",
        "valueQuantity": {
          "value": 98.0,
          "unit": "%",
          "system": "http://unitsofmeasure.org",
          "code": "%"
        },
        "interpretation": [
          {
            "coding": [
              {
                "system": "http://terminology.hl7.org/CodeSystem/v3-ObservationInterpretation",
                "code": "N",
                "display": "Normal"
              }
            ],
            "text": "Normal"
          }
        ]
      },
      "request": {
        "method": "POST",
        "url": "Observation"
      }
    },
    {
      "fullUrl": "urn:uuid:0a8c9be7-4876-44d0-82c7-f6ebdf7d3553",
      "resource": {
        "resourceType": "Encounter",
        "id": "0a8c9be7-4876-44d0-82c7-f6ebdf7d3553",
        "identifier": [
          {
            "use": "temp",
            "value": "Encounter_Emily Wilson_20251023095244"
          }
        ],
        "status": "completed",
        "priority": {
          "coding": [
            {
              "system": "http://snomed.info/sct",
              "code": "17621005",
              "display": "Normal"
            }
          ]
        },
        "type": [
          {
            "coding": [
              {
                "system": "http://snomed.info/sct",
                "code": "11429006",
                "display": "Consultation"
              }
            ]
          }
        ],
        "subject": {
          "reference": "Patient/83177ce2-83b7-4393-b618-18c4cff10cdb",
          "display": "Emily Wilson"
        },
        "reason": [
          {
            "value": [
              {
                "concept": {
                  "text": "routine check-up"
                }
              }
            ]
          }
        ]
      },
      "request": {
        "method": "POST",
        "url": "Encounter"
      }
    },
    {
      "fullUrl": "urn:uuid:87c7e7a6-66f4-48c0-8d80-c87e933cdfb0",
      "resource": {
        "resourceType": "Observation",
        "id": "87c7e7a6-66f4-48c0-8d80-c87e933cdfb0",
        "status": "final",
        "category": [
          {
            "coding": [
              {
                "system": "http://terminology.hl7.org/CodeSystem/observation-category",
                "code": "laboratory",
                "display": "Laboratory"
              }
            ],
            "text": "Laboratory"
          }
        ],
        "code": {
          "coding": [
            {
              "system": "http://loinc.org",
              "code": "58410-2",
              "display": "Complete blood count panel"
            }
          ],
          "text": "Complete Blood Count"
        },
        "subject": {
          "reference": "Patient/83177ce2-83b7-4393-b618-18c4cff10cdb"
        },
        "encounter": {
          "reference": "Encounter/0a8c9be7-4876-44d0-82c7-f6ebdf7d3553"
        },
        "effectiveDateTime": "2025-08-16",
        "interpretation": [
          {
            "coding": [
              {
                "system": "http://terminology.hl7.org/CodeSystem/v3-ObservationInterpretation",
                "code": "N",
                "display": "Normal"
              }
            ]
          }
        ],
        "note": [
          {
            "text": "Definition: https://loinc.org/58410-2/"
          }
        ]
      },
      "request": {
        "method": "POST",
        "url": "Observation"
      }
    },
    {
      "fullUrl": "urn:uuid:85c94649-aab4-45e1-8689-d67a16508a3e",
      "resource": {
        "resourceType": "Observation",
        "id": "85c94649-aab4-45e1-8689-d67a16508a3e",
        "status": "final",
        "category": [
          {
            "coding": [
              {
                "system": "http://terminology.hl7.org/CodeSystem/observation-category",
                "code": "laboratory",
                "display": "Laboratory"
              }
            ],
            "text": "Laboratory"
          }
        ],
        "code": {
          "coding": [
            {
              "system": "http://loinc.org",
              "code": "51990-0",
              "display": "Basic metabolic panel"
            }
          ],
          "text": "Basic Metabolic Panel"
        },
        "subject": {
          "reference": "Patient/83177ce2-83b7-4393-b618-18c4cff10cdb"
        },
        "encounter": {
          "reference": "Encounter/0a8c9be7-4876-44d0-82c7-f6ebdf7d3553"
        },
        "effectiveDateTime": "2025-08-16",
        "interpretation": [
          {
            "coding": [
              {
                "system": "http://terminology.hl7.org/CodeSystem/v3-ObservationInterpretation",
                "code": "N",
                "display": "Normal"
              }
            ]
          }
        ],
        "note": [
          {
            "text": "Definition: https://loinc.org/51990-0/"
          }
        ]
      },
      "request": {
        "method": "POST",
        "url": "Observation"
      }
    },
    {
      "fullUrl": "urn:uuid:11ba0575-bbfa-4d54-8eb9-bb0ef621ce7e",
      "resource": {
        "resourceType": "Observation",
        "id": "11ba0575-bbfa-4d54-8eb9-bb0ef621ce7e",
        "status": "final",
        "category": [
          {
            "coding": [
              {
                "system": "http://terminology.hl7.org/CodeSystem/observation-category",
                "code": "exam",
                "display": "Exam"
              }
            ],
            "text": "Exam"
          }
        ],
        "code": {
          "coding": [
            {
              "system": "http://snomed.info/sct",
              "code": "84229001",
              "display": "Fatigue"
            }
          ],
          "text": "Fatigue"
        },
        "subject": {
          "reference": "Patient/83177ce2-83b7-4393-b618-18c4cff10cdb"
        },
        "encounter": {
          "reference": "Encounter/0a8c9be7-4876-44d0-82c7-f6ebdf7d3553"
        },
        "effectivePeriod": {
          "start": "2025-08-16"
        },
        "valueBoolean": true,
        "note": [
          {
            "text": "Definition: https://snomed.info/id/84229001"
          }
        ]
      },
      "request": {
        "method": "POST",
        "url": "Observation"
      }
    },
    {
      "fullUrl": "urn:uuid:f8ef228e-82d1-4446-9233-09e70e857c58",
      "resource": {
        "resourceType": "List",
        "id": "f8ef228e-82d1-4446-9233-09e70e857c58",
        "contained": [
          {
            "resourceType": "FamilyMemberHistory",
            "id": "fmh-3",
            "status": "completed",
            "patient": {
              "reference": "Patient/83177ce2-83b7-4393-b618-18c4cff10cdb"
            },
            "relationship": {
              "coding": [
                {
                  "system": "http://snomed.info/sct",
                  "code": "66839005",
                  "display": "Father"
                }
              ]
            },
            "deceasedBoolean": false,
            "condition": []
          }
        ],
        "status": "current",
        "mode": "snapshot",
        "code": {
          "coding": [
            {
              "system": "http://loinc.org",
              "code": "8670-2",
              "display": "History of family member diseases"
            }
          ]
        },
        "subject": [
          {
            "reference": "Patient/83177ce2-83b7-4393-b618-18c4cff10cdb"
          }
        ],
        "note": [
          {
            "text": "Both parents are alive and healthy, with no known history of neurological or liver diseases."
          }
        ],
        "entry": [
          {
            "item": {
              "reference": "#fmh-3"
            }
          }
        ]
      },
      "request": {
        "method": "POST",
        "url": "FamilyMemberHistory"
      }
    }
  ]
}