{
  "resourceType": "Bundle",
  "type": "transaction",
  "entry": [
    {
      "fullUrl": "urn:uuid:395f7bf1-26e7-47a4-9a45-586e0ef1ddf3",
      "resource": {
        "resourceType": "Patient",
        "id": "395f7bf1-26e7-47a4-9a45-586e0ef1ddf3",
        "name": [
          {
            "family": "Thompson",
            "given": [
              "Sarah"
            ]
          }
        ],
        "gender": "female",
        "birthDate": "2000-07-12",
        "address": [
          {}
        ]
      },
      "request": {
        "method": "POST",
        "url": "Patient"
      }
    },
    {
      "fullUrl": "urn:uuid:9b418c2c-cd09-47de-b817-51348be687f6",
      "resource": {
        "resourceType": "Encounter",
        "id": "9b418c2c-cd09-47de-b817-51348be687f6",
        "identifier": [
          {
            "use": "temp",
            "value": "Encounter_Sarah Thompson_20251023095221"
          }
        ],
        "status": "completed",
        "priority": {
          "coding": [
            {
              "system": "http://snomed.info/sct",
              "code": "17621005",
              "display": "Normal"
            }
          ]
        },
        "type": [
          {
            "coding": [
              {
                "system": "http://snomed.info/sct",
                "code": "11429006",
                "display": "Consultation"
              }
            ]
          }
        ],
        "subject": {
          "reference": "Patient/395f7bf1-26e7-47a4-9a45-586e0ef1ddf3",
          "display": "Sarah Thompson"
        },
        "reason": [
          {
            "value": [
              {
                "concept": {
                  "text": "complaints of mild fatigue and occasional tremors in her hands"
                }
              }
            ]
          }
        ]
      },
      "request": {
        "method": "POST",
        "url": "Encounter"
      }
    },
    {
      "fullUrl": "urn:uuid:fdc4f3ce-73fb-476f-9a11-1fae1740f49c",
      "resource": {
        "resourceType": "Observation",
        "id": "fdc4f3ce-73fb-476f-9a11-1fae1740f49c",
        "status": "final",
        "category": [
          {
            "coding": [
              {
                "system": "http://terminology.hl7.org/CodeSystem/observation-category",
                "code": "laboratory",
                "display": "Laboratory"
              }
            ],
            "text": "Laboratory"
          }
        ],
        "code": {
          "coding": [
            {
              "system": "http://loinc.org",
              "code": "2064-4",
              "display": "Ceruloplasmin SerPl-mCnc"
            }
          ],
          "text": "Serum Ceruloplasmin"
        },
        "subject": {
          "reference": "Patient/395f7bf1-26e7-47a4-9a45-586e0ef1ddf3"
        },
        "encounter": {
          "reference": "Encounter/9b418c2c-cd09-47de-b817-51348be687f6"
        },
        "effectiveDateTime": "2025-10-16",
        "valueQuantity": {
          "value": 0.15,
          "unit": "grams per liter",
          "system": "http://unitsofmeasure.org",
          "code": "grams per liter"
        },
        "interpretation": [
          {
            "coding": [
              {
                "system": "http://terminology.hl7.org/CodeSystem/v3-ObservationInterpretation",
                "code": "L",
                "display": "Low"
              }
            ]
          }
        ],
        "note": [
          {
            "text": "Definition: https://loinc.org/2064-4/"
          }
        ]
      },
      "request": {
        "method": "POST",
        "url": "Observation"
      }
    },
    {
      "fullUrl": "urn:uuid:bf8e8982-4691-4b2d-86fa-422c6304deca",
      "resource": {
        "resourceType": "Observation",
        "id": "bf8e8982-4691-4b2d-86fa-422c6304deca",
        "status": "final",
        "category": [
          {
            "coding": [
              {
                "system": "http://terminology.hl7.org/CodeSystem/observation-category",
                "code": "laboratory",
                "display": "Laboratory"
              }
            ],
            "text": "Laboratory"
          }
        ],
        "code": {
          "coding": [
            {
              "system": "http://loinc.org",
              "code": "58410-2",
              "display": "Complete blood count panel"
            }
          ],
          "text": "Complete Blood Count"
        },
        "subject": {
          "reference": "Patient/395f7bf1-26e7-47a4-9a45-586e0ef1ddf3"
        },
        "encounter": {
          "reference": "Encounter/9b418c2c-cd09-47de-b817-51348be687f6"
        },
        "effectiveDateTime": "2025-10-16",
        "interpretation": [
          {
            "coding": [
              {
                "system": "http://terminology.hl7.org/CodeSystem/v3-ObservationInterpretation",
                "code": "N",
                "display": "Normal"
              }
            ]
          }
        ],
        "note": [
          {
            "text": "Definition: https://loinc.org/58410-2/"
          }
        ]
      },
      "request": {
        "method": "POST",
        "url": "Observation"
      }
    },
    {
      "fullUrl": "urn:uuid:073d1479-c1ba-4ec9-9a1f-49c9a35b7a3f",
      "resource": {
        "resourceType": "Observation",
        "id": "073d1479-c1ba-4ec9-9a1f-49c9a35b7a3f",
        "status": "final",
        "category": [
          {
            "coding": [
              {
                "system": "http://terminology.hl7.org/CodeSystem/observation-category",
                "code": "laboratory",
                "display": "Laboratory"
              }
            ],
            "text": "Laboratory"
          }
        ],
        "code": {
          "coding": [
            {
              "system": "http://loinc.org",
              "code": "51990-0",
              "display": "Basic metabolic panel"
            }
          ],
          "text": "Basic Metabolic Panel"
        },
        "subject": {
          "reference": "Patient/395f7bf1-26e7-47a4-9a45-586e0ef1ddf3"
        },
        "encounter": {
          "reference": "Encounter/9b418c2c-cd09-47de-b817-51348be687f6"
        },
        "effectiveDateTime": "2025-10-16",
        "interpretation": [
          {
            "coding": [
              {
                "system": "http://terminology.hl7.org/CodeSystem/v3-ObservationInterpretation",
                "code": "N",
                "display": "Normal"
              }
            ]
          }
        ],
        "note": [
          {
            "text": "Definition: https://loinc.org/51990-0/"
          }
        ]
      },
      "request": {
        "method": "POST",
        "url": "Observation"
      }
    },
    {
      "fullUrl": "urn:uuid:10181f32-d9ae-401e-baa3-98d24bfd945b",
      "resource": {
        "resourceType": "Observation",
        "id": "10181f32-d9ae-401e-baa3-98d24bfd945b",
        "status": "final",
        "category": [
          {
            "coding": [
              {
                "system": "http://terminology.hl7.org/CodeSystem/observation-category",
                "code": "exam",
                "display": "Exam"
              }
            ],
            "text": "Exam"
          }
        ],
        "code": {
          "coding": [
            {
              "system": "http://snomed.info/sct",
              "code": "84229001",
              "display": "Fatigue"
            }
          ],
          "text": "Fatigue"
        },
        "subject": {
          "reference": "Patient/395f7bf1-26e7-47a4-9a45-586e0ef1ddf3"
        },
        "encounter": {
          "reference": "Encounter/9b418c2c-cd09-47de-b817-51348be687f6"
        },
        "effectivePeriod": {
          "start": "2025-10-16"
        },
        "valueBoolean": true,
        "note": [
          {
            "text": "Definition: https://snomed.info/id/84229001"
          }
        ]
      },
      "request": {
        "method": "POST",
        "url": "Observation"
      }
    },
    {
      "fullUrl": "urn:uuid:af07a177-009c-4e74-8291-ab88d75db129",
      "resource": {
        "resourceType": "Observation",
        "id": "af07a177-009c-4e74-8291-ab88d75db129",
        "status": "final",
        "category": [
          {
            "coding": [
              {
                "system": "http://terminology.hl7.org/CodeSystem/observation-category",
                "code": "exam",
                "display": "Exam"
              }
            ],
            "text": "Exam"
          }
        ],
        "code": {
          "coding": [
            {
              "system": "http://snomed.info/sct",
              "code": "49958005",
              "display": "Aspergillus clavatus tremors"
            }
          ],
          "text": "Tremors"
        },
        "subject": {
          "reference": "Patient/395f7bf1-26e7-47a4-9a45-586e0ef1ddf3"
        },
        "encounter": {
          "reference": "Encounter/9b418c2c-cd09-47de-b817-51348be687f6"
        },
        "effectivePeriod": {
          "start": "2025-10-16"
        },
        "valueBoolean": true,
        "note": [
          {
            "text": "Definition: https://snomed.info/id/49958005"
          }
        ]
      },
      "request": {
        "method": "POST",
        "url": "Observation"
      }
    },
    {
      "fullUrl": "urn:uuid:d2f02418-1942-4270-9811-fdad2ba46d43",
      "resource": {
        "resourceType": "Observation",
        "id": "d2f02418-1942-4270-9811-fdad2ba46d43",
        "status": "final",
        "category": [
          {
            "coding": [
              {
                "system": "http://terminology.hl7.org/CodeSystem/observation-category",
                "code": "vital-signs",
                "display": "Vital Signs"
              }
            ],
            "text": "Vital Signs"
          }
        ],
        "code": {
          "coding": [
            {
              "system": "http://loinc.org",
              "code": "8310-5",
              "display": "Body temperature"
            }
          ],
          "text": "temperature"
        },
        "subject": {
          "reference": "Patient/395f7bf1-26e7-47a4-9a45-586e0ef1ddf3"
        },
        "encounter": {
          "reference": "Encounter/9b418c2c-cd09-47de-b817-51348be687f6"
        },
        "effectiveDateTime": "2025-10-16",
        "valueQuantity": {
          "value": 36.8,
          "unit": "degrees Celsius",
          "system": "http://unitsofmeasure.org",
          "code": "degrees Celsius"
        },
        "interpretation": [
          {
            "coding": [
              {
                "system": "http://terminology.hl7.org/CodeSystem/v3-ObservationInterpretation",
                "code": "N",
                "display": "Normal"
              }
            ],
            "text": "Normal"
          }
        ]
      },
      "request": {
        "method": "POST",
        "url": "Observation"
      }
    },
    {
      "fullUrl": "urn:uuid:87aac615-b9ff-4177-8dba-e672b070b7ff",
      "resource": {
        "resourceType": "Observation",
        "id": "87aac615-b9ff-4177-8dba-e672b070b7ff",
        "status": "final",
        "category": [
          {
            "coding": [
              {
                "system": "http://terminology.hl7.org/CodeSystem/observation-category",
                "code": "vital-signs",
                "display": "Vital Signs"
              }
            ],
            "text": "Vital Signs"
          }
        ],
        "code": {
          "coding": [
            {
              "system": "http://loinc.org",
              "code": "62733-1",
              "display": "PhenX - respiratory - pulse oximetry - rest protocol 091101"
            }
          ],
          "text": "pulse"
        },
        "subject": {
          "reference": "Patient/395f7bf1-26e7-47a4-9a45-586e0ef1ddf3"
        },
        "encounter": {
          "reference": "Encounter/9b418c2c-cd09-47de-b817-51348be687f6"
        },
        "effectiveDateTime": "2025-10-16",
        "valueQuantity": {
          "value": 72.0,
          "unit": "beats per minute",
          "system": "http://unitsofmeasure.org",
          "code": "beats per minute"
        },
        "interpretation": [
          {
            "coding": [
              {
                "system": "http://terminology.hl7.org/CodeSystem/v3-ObservationInterpretation",
                "code": "N",
                "display": "Normal"
              }
            ],
            "text": "Normal"
          }
        ]
      },
      "request": {
        "method": "POST",
        "url": "Observation"
      }
    },
    {
      "fullUrl": "urn:uuid:a6dc32b3-7ddb-4bda-8a1b-3d9601e9bfe5",
      "resource": {
        "resourceType": "Observation",
        "id": "a6dc32b3-7ddb-4bda-8a1b-3d9601e9bfe5",
        "status": "final",
        "category": [
          {
            "coding": [
              {
                "system": "http://terminology.hl7.org/CodeSystem/observation-category",
                "code": "vital-signs",
                "display": "Vital Signs"
              }
            ],
            "text": "Vital Signs"
          }
        ],
        "code": {
          "coding": [
            {
              "system": "http://loinc.org",
              "code": "18684-1",
              "display": "Blood pressure"
            }
          ],
          "text": "blood pressure"
        },
        "subject": {
          "reference": "Patient/395f7bf1-26e7-47a4-9a45-586e0ef1ddf3"
        },
        "encounter": {
          "reference": "Encounter/9b418c2c-cd09-47de-b817-51348be687f6"
        },
        "effectiveDateTime": "2025-10-16",
        "interpretation": [
          {
            "coding": [
              {
                "system": "http://terminology.hl7.org/CodeSystem/v3-ObservationInterpretation",
                "code": "N",
                "display": "Normal"
              }
            ],
            "text": "Normal"
          }
        ]
      },
      "request": {
        "method": "POST",
        "url": "Observation"
      }
    },
    {
      "fullUrl": "urn:uuid:0b46dd86-f1e0-4e95-96b3-e16eb0999552",
      "resource": {
        "resourceType": "Observation",
        "id": "0b46dd86-f1e0-4e95-96b3-e16eb0999552",
        "status": "final",
        "category": [
          {
            "coding": [
              {
                "system": "http://terminology.hl7.org/CodeSystem/observation-category",
                "code": "vital-signs",
                "display": "Vital Signs"
              }
            ],
            "text": "Vital Signs"
          }
        ],
        "code": {
          "coding": [
            {
              "system": "http://loinc.org",
              "code": "9279-1",
              "display": "Resp rate"
            }
          ],
          "text": "respiratory rate"
        },
        "subject": {
          "reference": "Patient/395f7bf1-26e7-47a4-9a45-586e0ef1ddf3"
        },
        "encounter": {
          "reference": "Encounter/9b418c2c-cd09-47de-b817-51348be687f6"
        },
        "effectiveDateTime": "2025-10-16",
        "valueQuantity": {
          "value": 16.0,
          "unit": "breaths per minute",
          "system": "http://unitsofmeasure.org",
          "code": "breaths per minute"
        },
        "interpretation": [
          {
            "coding": [
              {
                "system": "http://terminology.hl7.org/CodeSystem/v3-ObservationInterpretation",
                "code": "N",
                "display": "Normal"
              }
            ],
            "text": "Normal"
          }
        ]
      },
      "request": {
        "method": "POST",
        "url": "Observation"
      }
    },
    {
      "fullUrl": "urn:uuid:ea2ae9c5-f7d1-4136-95b9-dc1b07f24d66",
      "resource": {
        "resourceType": "Observation",
        "id": "ea2ae9c5-f7d1-4136-95b9-dc1b07f24d66",
        "status": "final",
        "category": [
          {
            "coding": [
              {
                "system": "http://terminology.hl7.org/CodeSystem/observation-category",
                "code": "vital-signs",
                "display": "Vital Signs"
              }
            ],
            "text": "Vital Signs"
          }
        ],
        "code": {
          "coding": [
            {
              "system": "http://loinc.org",
              "code": "8337-8",
              "display": "Bdy weight special circumstances"
            }
          ],
          "text": "weight"
        },
        "subject": {
          "reference": "Patient/395f7bf1-26e7-47a4-9a45-586e0ef1ddf3"
        },
        "encounter": {
          "reference": "Encounter/9b418c2c-cd09-47de-b817-51348be687f6"
        },
        "effectiveDateTime": "2025-10-16",
        "valueQuantity": {
          "value": 58.0,
          "unit": "kilograms",
          "system": "http://unitsofmeasure.org",
          "code": "kilograms"
        },
        "interpretation": [
          {
            "coding": [
              {
                "system": "http://terminology.hl7.org/CodeSystem/v3-ObservationInterpretation",
                "code": "N",
                "display": "Normal"
              }
            ],
            "text": "Normal"
          }
        ]
      },
      "request": {
        "method": "POST",
        "url": "Observation"
      }
    },
    {
      "fullUrl": "urn:uuid:f1528f0c-d424-4e0b-b3d2-7f13b2230a66",
      "resource": {
        "resourceType": "Observation",
        "id": "f1528f0c-d424-4e0b-b3d2-7f13b2230a66",
        "status": "final",
        "category": [
          {
            "coding": [
              {
                "system": "http://terminology.hl7.org/CodeSystem/observation-category",
                "code": "vital-signs",
                "display": "Vital Signs"
              }
            ],
            "text": "Vital Signs"
          }
        ],
        "code": {
          "coding": [
            {
              "system": "http://loinc.org",
              "code": "92998-4",
              "display": "Lower segment"
            }
          ],
          "text": "height"
        },
        "subject": {
          "reference": "Patient/395f7bf1-26e7-47a4-9a45-586e0ef1ddf3"
        },
        "encounter": {
          "reference": "Encounter/9b418c2c-cd09-47de-b817-51348be687f6"
        },
        "effectiveDateTime": "2025-10-16",
        "valueQuantity": {
          "value": 165.0,
          "unit": "centimeters",
          "system": "http://unitsofmeasure.org",
          "code": "centimeters"
        },
        "interpretation": [
          {
            "coding": [
              {
                "system": "http://terminology.hl7.org/CodeSystem/v3-ObservationInterpretation",
                "code": "N",
                "display": "Normal"
              }
            ],
            "text": "Normal"
          }
        ]
      },
      "request": {
        "method": "POST",
        "url": "Observation"
      }
    },
    {
      "fullUrl": "urn:uuid:a61bbdae-81ea-47b0-bc40-e4e96224156f",
      "resource": {
        "resourceType": "Observation",
        "id": "a61bbdae-81ea-47b0-bc40-e4e96224156f",
        "status": "final",
        "category": [
          {
            "coding": [
              {
                "system": "http://terminology.hl7.org/CodeSystem/observation-category",
                "code": "vital-signs",
                "display": "Vital Signs"
              }
            ],
            "text": "Vital Signs"
          }
        ],
        "code": {
          "coding": [
            {
              "system": "http://loinc.org",
              "code": "107102-6",
              "display": "BMI formula"
            }
          ],
          "text": "BMI"
        },
        "subject": {
          "reference": "Patient/395f7bf1-26e7-47a4-9a45-586e0ef1ddf3"
        },
        "encounter": {
          "reference": "Encounter/9b418c2c-cd09-47de-b817-51348be687f6"
        },
        "effectiveDateTime": "2025-10-16",
        "interpretation": [
          {
            "coding": [
              {
                "system": "http://terminology.hl7.org/CodeSystem/v3-ObservationInterpretation",
                "code": "N",
                "display": "Normal"
              }
            ],
            "text": "Normal"
          }
        ]
      },
      "request": {
        "method": "POST",
        "url": "Observation"
      }
    },
    {
      "fullUrl": "urn:uuid:8591908a-6ea4-403f-a883-27257a5ef8d2",
      "resource": {
        "resourceType": "Observation",
        "id": "8591908a-6ea4-403f-a883-27257a5ef8d2",
        "status": "final",
        "category": [
          {
            "coding": [
              {
                "system": "http://terminology.hl7.org/CodeSystem/observation-category",
                "code": "vital-signs",
                "display": "Vital Signs"
              }
            ],
            "text": "Vital Signs"
          }
        ],
        "code": {
          "coding": [
            {
              "system": "http://loinc.org",
              "code": "2717-7",
              "display": "OxyHgb MFr Plas"
            }
          ],
          "text": "oxygen saturation"
        },
        "subject": {
          "reference": "Patient/395f7bf1-26e7-47a4-9a45-586e0ef1ddf3"
        },
        "encounter": {
          "reference": "Encounter/9b418c2c-cd09-47de-b817-51348be687f6"
        },
        "effectiveDateTime": "2025-10-16",
        "valueQuantity": {
          "value": 98.0,
          "unit": "%",
          "system": "http://unitsofmeasure.org",
          "code": "%"
        },
        "interpretation": [
          {
            "coding": [
              {
                "system": "http://terminology.hl7.org/CodeSystem/v3-ObservationInterpretation",
                "code": "N",
                "display": "Normal"
              }
            ],
            "text": "Normal"
          }
        ]
      },
      "request": {
        "method": "POST",
        "url": "Observation"
      }
    },
    {
      "fullUrl": "urn:uuid:d6f52a7f-79b6-4697-ad52-a0eab5d91520",
      "resource": {
        "resourceType": "Encounter",
        "id": "d6f52a7f-79b6-4697-ad52-a0eab5d91520",
        "identifier": [
          {
            "use": "temp",
            "value": "Encounter_Sarah Thompson_20251023095228"
          }
        ],
        "status": "completed",
        "priority": {
          "coding": [
            {
              "system": "http://snomed.info/sct",
              "code": "17621005",
              "display": "Normal"
            }
          ]
        },
        "type": [
          {
            "coding": [
              {
                "system": "http://snomed.info/sct",
                "code": "11429006",
                "display": "Consultation"
              }
            ]
          }
        ],
        "subject": {
          "reference": "Patient/395f7bf1-26e7-47a4-9a45-586e0ef1ddf3",
          "display": "Sarah Thompson"
        },
        "reason": [
          {
            "value": [
              {
                "concept": {
                  "text": "routine check-up"
                }
              }
            ]
          }
        ]
      },
      "request": {
        "method": "POST",
        "url": "Encounter"
      }
    },
    {
      "fullUrl": "urn:uuid:db66b5b9-ba73-40a1-917b-bd9b9183b714",
      "resource": {
        "resourceType": "Observation",
        "id": "db66b5b9-ba73-40a1-917b-bd9b9183b714",
        "status": "final",
        "category": [
          {
            "coding": [
              {
                "system": "http://terminology.hl7.org/CodeSystem/observation-category",
                "code": "laboratory",
                "display": "Laboratory"
              }
            ],
            "text": "Laboratory"
          }
        ],
        "code": {
          "coding": [
            {
              "system": "http://loinc.org",
              "code": "1917-4",
              "display": "AST Amn-cCnc"
            }
          ],
          "text": "Aspartate Aminotransferase"
        },
        "subject": {
          "reference": "Patient/395f7bf1-26e7-47a4-9a45-586e0ef1ddf3"
        },
        "encounter": {
          "reference": "Encounter/d6f52a7f-79b6-4697-ad52-a0eab5d91520"
        },
        "effectiveDateTime": "2025-08-16",
        "valueQuantity": {
          "value": 22.0,
          "unit": "units per liter",
          "system": "http://unitsofmeasure.org",
          "code": "units per liter"
        },
        "interpretation": [
          {
            "coding": [
              {
                "system": "http://terminology.hl7.org/CodeSystem/v3-ObservationInterpretation",
                "code": "N",
                "display": "Normal"
              }
            ]
          }
        ],
        "note": [
          {
            "text": "Definition: https://loinc.org/1917-4/"
          }
        ]
      },
      "request": {
        "method": "POST",
        "url": "Observation"
      }
    },
    {
      "fullUrl": "urn:uuid:c126a554-91b1-40bf-9031-2161d5d21440",
      "resource": {
        "resourceType": "Observation",
        "id": "c126a554-91b1-40bf-9031-2161d5d21440",
        "status": "final",
        "category": [
          {
            "coding": [
              {
                "system": "http://terminology.hl7.org/CodeSystem/observation-category",
                "code": "laboratory",
                "display": "Laboratory"
              }
            ],
            "text": "Laboratory"
          }
        ],
        "code": {
          "coding": [
            {
              "system": "http://loinc.org",
              "code": "69478-6",
              "display": "AGXT gene Del+Dup Bld/T MLPA"
            }
          ],
          "text": "Alanine Aminotransferase"
        },
        "subject": {
          "reference": "Patient/395f7bf1-26e7-47a4-9a45-586e0ef1ddf3"
        },
        "encounter": {
          "reference": "Encounter/d6f52a7f-79b6-4697-ad52-a0eab5d91520"
        },
        "effectiveDateTime": "2025-08-16",
        "valueQuantity": {
          "value": 18.0,
          "unit": "units per liter",
          "system": "http://unitsofmeasure.org",
          "code": "units per liter"
        },
        "interpretation": [
          {
            "coding": [
              {
                "system": "http://terminology.hl7.org/CodeSystem/v3-ObservationInterpretation",
                "code": "N",
                "display": "Normal"
              }
            ]
          }
        ],
        "note": [
          {
            "text": "Definition: https://loinc.org/69478-6/"
          }
        ]
      },
      "request": {
        "method": "POST",
        "url": "Observation"
      }
    },
    {
      "fullUrl": "urn:uuid:dd68a030-89a9-4df1-8f4c-950ec9f395df",
      "resource": {
        "resourceType": "List",
        "id": "dd68a030-89a9-4df1-8f4c-950ec9f395df",
        "contained": [
          {
            "resourceType": "FamilyMemberHistory",
            "id": "fmh-3",
            "status": "completed",
            "patient": {
              "reference": "Patient/395f7bf1-26e7-47a4-9a45-586e0ef1ddf3"
            },
            "relationship": {
              "coding": [
                {
                  "system": "http://snomed.info/sct",
                  "code": "66839005",
                  "display": "Father"
                }
              ]
            },
            "deceasedBoolean": false,
            "condition": []
          }
        ],
        "status": "current",
        "mode": "snapshot",
        "code": {
          "coding": [
            {
              "system": "http://loinc.org",
              "code": "8670-2",
              "display": "History of family member diseases"
            }
          ]
        },
        "subject": [
          {
            "reference": "Patient/395f7bf1-26e7-47a4-9a45-586e0ef1ddf3"
          }
        ],
        "note": [
          {
            "text": "Both parents are alive and healthy, with no known history of liver disease, neurological disorders, or other significant medical conditions."
          }
        ],
        "entry": [
          {
            "item": {
              "reference": "#fmh-3"
            }
          }
        ]
      },
      "request": {
        "method": "POST",
        "url": "FamilyMemberHistory"
      }
    }
  ]
}