{
  "resourceType": "Bundle",
  "type": "transaction",
  "entry": [
    {
      "fullUrl": "urn:uuid:6379b308-1325-49c9-9ca8-c3246152701c",
      "resource": {
        "resourceType": "Patient",
        "id": "6379b308-1325-49c9-9ca8-c3246152701c",
        "name": [
          {
            "family": "Wilson",
            "given": [
              "Emily"
            ]
          }
        ],
        "gender": "female",
        "birthDate": "1993-01-01",
        "address": [
          {}
        ]
      },
      "request": {
        "method": "POST",
        "url": "Patient"
      }
    },
    {
      "fullUrl": "urn:uuid:c79098d0-0d2c-4f87-aa0b-ab516b796b13",
      "resource": {
        "resourceType": "Encounter",
        "id": "c79098d0-0d2c-4f87-aa0b-ab516b796b13",
        "identifier": [
          {
            "use": "temp",
            "value": "Encounter_Emily Wilson_20251021093951"
          }
        ],
        "status": "completed",
        "priority": {
          "coding": [
            {
              "system": "http://snomed.info/sct",
              "code": "17621005",
              "display": "Normal"
            }
          ]
        },
        "type": [
          {
            "coding": [
              {
                "system": "http://snomed.info/sct",
                "code": "11429006",
                "display": "Consultation"
              }
            ]
          }
        ],
        "subject": {
          "reference": "Patient/6379b308-1325-49c9-9ca8-c3246152701c",
          "display": "Emily Wilson"
        },
        "reason": [
          {
            "value": [
              {
                "concept": {
                  "text": "recurring episodes of fever, rash, and joint pain"
                }
              }
            ]
          }
        ]
      },
      "request": {
        "method": "POST",
        "url": "Encounter"
      }
    },
    {
      "fullUrl": "urn:uuid:024bc628-cb51-4618-b106-ace7b25a6ac5",
      "resource": {
        "resourceType": "Observation",
        "id": "024bc628-cb51-4618-b106-ace7b25a6ac5",
        "status": "final",
        "category": [
          {
            "coding": [
              {
                "system": "http://terminology.hl7.org/CodeSystem/observation-category",
                "code": "laboratory",
                "display": "Laboratory"
              }
            ],
            "text": "Laboratory"
          }
        ],
        "code": {
          "coding": [
            {
              "system": "http://loinc.org",
              "code": "unknown",
              "display": "Erythrocyte Sedimentation Rate (ESR)"
            }
          ],
          "text": "Erythrocyte Sedimentation Rate (ESR)"
        },
        "subject": {
          "reference": "Patient/6379b308-1325-49c9-9ca8-c3246152701c"
        },
        "encounter": {
          "reference": "Encounter/c79098d0-0d2c-4f87-aa0b-ab516b796b13"
        },
        "effectiveDateTime": "2025-10-16",
        "valueQuantity": {
          "value": 25.0,
          "unit": "mm/hour",
          "system": "http://unitsofmeasure.org",
          "code": "mm/hour"
        },
        "interpretation": [
          {
            "coding": [
              {
                "system": "http://terminology.hl7.org/CodeSystem/v3-ObservationInterpretation",
                "code": "H",
                "display": "High"
              }
            ]
          }
        ]
      },
      "request": {
        "method": "POST",
        "url": "Observation"
      }
    },
    {
      "fullUrl": "urn:uuid:ea6949d7-2a74-4c0f-8fac-741cc0f2bb72",
      "resource": {
        "resourceType": "Observation",
        "id": "ea6949d7-2a74-4c0f-8fac-741cc0f2bb72",
        "status": "final",
        "category": [
          {
            "coding": [
              {
                "system": "http://terminology.hl7.org/CodeSystem/observation-category",
                "code": "laboratory",
                "display": "Laboratory"
              }
            ],
            "text": "Laboratory"
          }
        ],
        "code": {
          "coding": [
            {
              "system": "http://loinc.org",
              "code": "35648-5",
              "display": "CRP Quint SerPl Qn HS"
            }
          ],
          "text": "C-reactive protein (CRP)"
        },
        "subject": {
          "reference": "Patient/6379b308-1325-49c9-9ca8-c3246152701c"
        },
        "encounter": {
          "reference": "Encounter/c79098d0-0d2c-4f87-aa0b-ab516b796b13"
        },
        "effectiveDateTime": "2025-10-16",
        "valueQuantity": {
          "value": 10.0,
          "unit": "mg/L",
          "system": "http://unitsofmeasure.org",
          "code": "mg/L"
        },
        "interpretation": [
          {
            "coding": [
              {
                "system": "http://terminology.hl7.org/CodeSystem/v3-ObservationInterpretation",
                "code": "H",
                "display": "High"
              }
            ]
          }
        ],
        "note": [
          {
            "text": "Definition: https://loinc.org/35648-5/"
          }
        ]
      },
      "request": {
        "method": "POST",
        "url": "Observation"
      }
    },
    {
      "fullUrl": "urn:uuid:9e26e186-8804-424a-98bb-de74ab38e9f4",
      "resource": {
        "resourceType": "Observation",
        "id": "9e26e186-8804-424a-98bb-de74ab38e9f4",
        "status": "final",
        "category": [
          {
            "coding": [
              {
                "system": "http://terminology.hl7.org/CodeSystem/observation-category",
                "code": "laboratory",
                "display": "Laboratory"
              }
            ],
            "text": "Laboratory"
          }
        ],
        "code": {
          "coding": [
            {
              "system": "http://loinc.org",
              "code": "58410-2",
              "display": "Complete blood count panel"
            }
          ],
          "text": "Complete Blood Count (CBC)"
        },
        "subject": {
          "reference": "Patient/6379b308-1325-49c9-9ca8-c3246152701c"
        },
        "encounter": {
          "reference": "Encounter/c79098d0-0d2c-4f87-aa0b-ab516b796b13"
        },
        "effectiveDateTime": "2025-10-16",
        "interpretation": [
          {
            "coding": [
              {
                "system": "http://terminology.hl7.org/CodeSystem/v3-ObservationInterpretation",
                "code": "N",
                "display": "Normal"
              }
            ]
          }
        ],
        "note": [
          {
            "text": "Definition: https://loinc.org/58410-2/"
          }
        ]
      },
      "request": {
        "method": "POST",
        "url": "Observation"
      }
    },
    {
      "fullUrl": "urn:uuid:33694b45-b4ca-4b5d-b212-052fe799fa61",
      "resource": {
        "resourceType": "Observation",
        "id": "33694b45-b4ca-4b5d-b212-052fe799fa61",
        "status": "final",
        "category": [
          {
            "coding": [
              {
                "system": "http://terminology.hl7.org/CodeSystem/observation-category",
                "code": "laboratory",
                "display": "Laboratory"
              }
            ],
            "text": "Laboratory"
          }
        ],
        "code": {
          "coding": [
            {
              "system": "http://loinc.org",
              "code": "unknown",
              "display": "Blood Chemistry Profiles"
            }
          ],
          "text": "Blood Chemistry Profiles"
        },
        "subject": {
          "reference": "Patient/6379b308-1325-49c9-9ca8-c3246152701c"
        },
        "encounter": {
          "reference": "Encounter/c79098d0-0d2c-4f87-aa0b-ab516b796b13"
        },
        "effectiveDateTime": "2025-10-16",
        "interpretation": [
          {
            "coding": [
              {
                "system": "http://terminology.hl7.org/CodeSystem/v3-ObservationInterpretation",
                "code": "N",
                "display": "Normal"
              }
            ]
          }
        ]
      },
      "request": {
        "method": "POST",
        "url": "Observation"
      }
    },
    {
      "fullUrl": "urn:uuid:4858b6d2-e555-4139-8067-1abb3cd6a906",
      "resource": {
        "resourceType": "Observation",
        "id": "4858b6d2-e555-4139-8067-1abb3cd6a906",
        "status": "final",
        "category": [
          {
            "coding": [
              {
                "system": "http://terminology.hl7.org/CodeSystem/observation-category",
                "code": "exam",
                "display": "Exam"
              }
            ],
            "text": "Exam"
          }
        ],
        "code": {
          "coding": [
            {
              "system": "http://snomed.info/sct",
              "code": "386661006",
              "display": "Fever"
            }
          ],
          "text": "Fever"
        },
        "subject": {
          "reference": "Patient/6379b308-1325-49c9-9ca8-c3246152701c"
        },
        "encounter": {
          "reference": "Encounter/c79098d0-0d2c-4f87-aa0b-ab516b796b13"
        },
        "effectivePeriod": {
          "start": "2025-10-16"
        },
        "valueBoolean": true,
        "note": [
          {
            "text": "Definition: https://snomed.info/id/386661006"
          }
        ]
      },
      "request": {
        "method": "POST",
        "url": "Observation"
      }
    },
    {
      "fullUrl": "urn:uuid:c1956885-9dac-433b-9570-8c60b54e207e",
      "resource": {
        "resourceType": "Observation",
        "id": "c1956885-9dac-433b-9570-8c60b54e207e",
        "status": "final",
        "category": [
          {
            "coding": [
              {
                "system": "http://terminology.hl7.org/CodeSystem/observation-category",
                "code": "exam",
                "display": "Exam"
              }
            ],
            "text": "Exam"
          }
        ],
        "code": {
          "coding": [
            {
              "system": "http://snomed.info/sct",
              "code": "89757007",
              "display": "Macular rash"
            }
          ],
          "text": "Rash"
        },
        "subject": {
          "reference": "Patient/6379b308-1325-49c9-9ca8-c3246152701c"
        },
        "encounter": {
          "reference": "Encounter/c79098d0-0d2c-4f87-aa0b-ab516b796b13"
        },
        "effectivePeriod": {
          "start": "2025-10-16"
        },
        "valueBoolean": true,
        "note": [
          {
            "text": "Definition: https://snomed.info/id/89757007"
          }
        ]
      },
      "request": {
        "method": "POST",
        "url": "Observation"
      }
    },
    {
      "fullUrl": "urn:uuid:01c2fd9a-900f-4e84-a468-c4c83c656edc",
      "resource": {
        "resourceType": "Observation",
        "id": "01c2fd9a-900f-4e84-a468-c4c83c656edc",
        "status": "final",
        "category": [
          {
            "coding": [
              {
                "system": "http://terminology.hl7.org/CodeSystem/observation-category",
                "code": "exam",
                "display": "Exam"
              }
            ],
            "text": "Exam"
          }
        ],
        "code": {
          "coding": [
            {
              "system": "http://snomed.info/sct",
              "code": "57676002",
              "display": "Joint pain"
            }
          ],
          "text": "Joint Pain"
        },
        "subject": {
          "reference": "Patient/6379b308-1325-49c9-9ca8-c3246152701c"
        },
        "encounter": {
          "reference": "Encounter/c79098d0-0d2c-4f87-aa0b-ab516b796b13"
        },
        "effectivePeriod": {
          "start": "2025-10-16"
        },
        "valueBoolean": true,
        "note": [
          {
            "text": "Definition: https://snomed.info/id/57676002"
          }
        ]
      },
      "request": {
        "method": "POST",
        "url": "Observation"
      }
    },
    {
      "fullUrl": "urn:uuid:53c3b19f-b4e2-48d5-8a13-cf8ad6b90e98",
      "resource": {
        "resourceType": "Observation",
        "id": "53c3b19f-b4e2-48d5-8a13-cf8ad6b90e98",
        "status": "final",
        "category": [
          {
            "coding": [
              {
                "system": "http://terminology.hl7.org/CodeSystem/observation-category",
                "code": "vital-signs",
                "display": "Vital Signs"
              }
            ],
            "text": "Vital Signs"
          }
        ],
        "code": {
          "coding": [
            {
              "system": "http://loinc.org",
              "code": "8310-5",
              "display": "Body temperature"
            }
          ],
          "text": "temperature"
        },
        "subject": {
          "reference": "Patient/6379b308-1325-49c9-9ca8-c3246152701c"
        },
        "encounter": {
          "reference": "Encounter/c79098d0-0d2c-4f87-aa0b-ab516b796b13"
        },
        "effectiveDateTime": "2025-10-16",
        "valueQuantity": {
          "value": 37.8,
          "unit": "°C",
          "system": "http://unitsofmeasure.org",
          "code": "°C"
        },
        "interpretation": [
          {
            "coding": [
              {
                "system": "http://terminology.hl7.org/CodeSystem/v3-ObservationInterpretation",
                "code": "N",
                "display": "Normal"
              }
            ],
            "text": "Normal"
          }
        ]
      },
      "request": {
        "method": "POST",
        "url": "Observation"
      }
    },
    {
      "fullUrl": "urn:uuid:39f71b43-a7bb-49f3-a605-68a6cedc6ad4",
      "resource": {
        "resourceType": "Observation",
        "id": "39f71b43-a7bb-49f3-a605-68a6cedc6ad4",
        "status": "final",
        "category": [
          {
            "coding": [
              {
                "system": "http://terminology.hl7.org/CodeSystem/observation-category",
                "code": "vital-signs",
                "display": "Vital Signs"
              }
            ],
            "text": "Vital Signs"
          }
        ],
        "code": {
          "coding": [
            {
              "system": "http://loinc.org",
              "code": "62733-1",
              "display": "PhenX - respiratory - pulse oximetry - rest protocol 091101"
            }
          ],
          "text": "pulse"
        },
        "subject": {
          "reference": "Patient/6379b308-1325-49c9-9ca8-c3246152701c"
        },
        "encounter": {
          "reference": "Encounter/c79098d0-0d2c-4f87-aa0b-ab516b796b13"
        },
        "effectiveDateTime": "2025-10-16",
        "valueQuantity": {
          "value": 82.0,
          "unit": "bpm",
          "system": "http://unitsofmeasure.org",
          "code": "bpm"
        },
        "interpretation": [
          {
            "coding": [
              {
                "system": "http://terminology.hl7.org/CodeSystem/v3-ObservationInterpretation",
                "code": "N",
                "display": "Normal"
              }
            ],
            "text": "Normal"
          }
        ]
      },
      "request": {
        "method": "POST",
        "url": "Observation"
      }
    },
    {
      "fullUrl": "urn:uuid:f880b1bd-db0e-47e5-bb0f-cec10bcbe7b0",
      "resource": {
        "resourceType": "Observation",
        "id": "f880b1bd-db0e-47e5-bb0f-cec10bcbe7b0",
        "status": "final",
        "category": [
          {
            "coding": [
              {
                "system": "http://terminology.hl7.org/CodeSystem/observation-category",
                "code": "vital-signs",
                "display": "Vital Signs"
              }
            ],
            "text": "Vital Signs"
          }
        ],
        "code": {
          "coding": [
            {
              "system": "http://loinc.org",
              "code": "18684-1",
              "display": "Blood pressure"
            }
          ],
          "text": "blood pressure"
        },
        "subject": {
          "reference": "Patient/6379b308-1325-49c9-9ca8-c3246152701c"
        },
        "encounter": {
          "reference": "Encounter/c79098d0-0d2c-4f87-aa0b-ab516b796b13"
        },
        "effectiveDateTime": "2025-10-16",
        "valueQuantity": {
          "value": 128.0,
          "unit": "mmHg",
          "system": "http://unitsofmeasure.org",
          "code": "mmHg"
        },
        "interpretation": [
          {
            "coding": [
              {
                "system": "http://terminology.hl7.org/CodeSystem/v3-ObservationInterpretation",
                "code": "N",
                "display": "Normal"
              }
            ],
            "text": "Normal"
          }
        ]
      },
      "request": {
        "method": "POST",
        "url": "Observation"
      }
    },
    {
      "fullUrl": "urn:uuid:a5be6b75-c733-46fa-be1c-7303adbf2de4",
      "resource": {
        "resourceType": "Observation",
        "id": "a5be6b75-c733-46fa-be1c-7303adbf2de4",
        "status": "final",
        "category": [
          {
            "coding": [
              {
                "system": "http://terminology.hl7.org/CodeSystem/observation-category",
                "code": "vital-signs",
                "display": "Vital Signs"
              }
            ],
            "text": "Vital Signs"
          }
        ],
        "code": {
          "coding": [
            {
              "system": "http://loinc.org",
              "code": "9279-1",
              "display": "Resp rate"
            }
          ],
          "text": "respiratory rate"
        },
        "subject": {
          "reference": "Patient/6379b308-1325-49c9-9ca8-c3246152701c"
        },
        "encounter": {
          "reference": "Encounter/c79098d0-0d2c-4f87-aa0b-ab516b796b13"
        },
        "effectiveDateTime": "2025-10-16",
        "valueQuantity": {
          "value": 18.0,
          "unit": "breaths per minute",
          "system": "http://unitsofmeasure.org",
          "code": "breaths per minute"
        },
        "interpretation": [
          {
            "coding": [
              {
                "system": "http://terminology.hl7.org/CodeSystem/v3-ObservationInterpretation",
                "code": "N",
                "display": "Normal"
              }
            ],
            "text": "Normal"
          }
        ]
      },
      "request": {
        "method": "POST",
        "url": "Observation"
      }
    },
    {
      "fullUrl": "urn:uuid:7672b5bf-fe1f-4bd1-87bc-912b69dcdccd",
      "resource": {
        "resourceType": "Observation",
        "id": "7672b5bf-fe1f-4bd1-87bc-912b69dcdccd",
        "status": "final",
        "category": [
          {
            "coding": [
              {
                "system": "http://terminology.hl7.org/CodeSystem/observation-category",
                "code": "vital-signs",
                "display": "Vital Signs"
              }
            ],
            "text": "Vital Signs"
          }
        ],
        "code": {
          "coding": [
            {
              "system": "http://loinc.org",
              "code": "8337-8",
              "display": "Bdy weight special circumstances"
            }
          ],
          "text": "weight"
        },
        "subject": {
          "reference": "Patient/6379b308-1325-49c9-9ca8-c3246152701c"
        },
        "encounter": {
          "reference": "Encounter/c79098d0-0d2c-4f87-aa0b-ab516b796b13"
        },
        "effectiveDateTime": "2025-10-16",
        "valueQuantity": {
          "value": 62.0,
          "unit": "kg",
          "system": "http://unitsofmeasure.org",
          "code": "kg"
        },
        "interpretation": [
          {
            "coding": [
              {
                "system": "http://terminology.hl7.org/CodeSystem/v3-ObservationInterpretation",
                "code": "N",
                "display": "Normal"
              }
            ],
            "text": "Normal"
          }
        ]
      },
      "request": {
        "method": "POST",
        "url": "Observation"
      }
    },
    {
      "fullUrl": "urn:uuid:809bd87c-8b62-49b3-ab7f-6f635d35aac3",
      "resource": {
        "resourceType": "Observation",
        "id": "809bd87c-8b62-49b3-ab7f-6f635d35aac3",
        "status": "final",
        "category": [
          {
            "coding": [
              {
                "system": "http://terminology.hl7.org/CodeSystem/observation-category",
                "code": "vital-signs",
                "display": "Vital Signs"
              }
            ],
            "text": "Vital Signs"
          }
        ],
        "code": {
          "coding": [
            {
              "system": "http://loinc.org",
              "code": "92998-4",
              "display": "Lower segment"
            }
          ],
          "text": "height"
        },
        "subject": {
          "reference": "Patient/6379b308-1325-49c9-9ca8-c3246152701c"
        },
        "encounter": {
          "reference": "Encounter/c79098d0-0d2c-4f87-aa0b-ab516b796b13"
        },
        "effectiveDateTime": "2025-10-16",
        "valueQuantity": {
          "value": 165.0,
          "unit": "cm",
          "system": "http://unitsofmeasure.org",
          "code": "cm"
        },
        "interpretation": [
          {
            "coding": [
              {
                "system": "http://terminology.hl7.org/CodeSystem/v3-ObservationInterpretation",
                "code": "N",
                "display": "Normal"
              }
            ],
            "text": "Normal"
          }
        ]
      },
      "request": {
        "method": "POST",
        "url": "Observation"
      }
    },
    {
      "fullUrl": "urn:uuid:c12ff6b5-604d-47cb-b47d-f2ce545fe458",
      "resource": {
        "resourceType": "Observation",
        "id": "c12ff6b5-604d-47cb-b47d-f2ce545fe458",
        "status": "final",
        "category": [
          {
            "coding": [
              {
                "system": "http://terminology.hl7.org/CodeSystem/observation-category",
                "code": "vital-signs",
                "display": "Vital Signs"
              }
            ],
            "text": "Vital Signs"
          }
        ],
        "code": {
          "coding": [
            {
              "system": "http://loinc.org",
              "code": "107102-6",
              "display": "BMI formula"
            }
          ],
          "text": "BMI"
        },
        "subject": {
          "reference": "Patient/6379b308-1325-49c9-9ca8-c3246152701c"
        },
        "encounter": {
          "reference": "Encounter/c79098d0-0d2c-4f87-aa0b-ab516b796b13"
        },
        "effectiveDateTime": "2025-10-16",
        "valueQuantity": {
          "value": 22.8,
          "unit": "kg/m²",
          "system": "http://unitsofmeasure.org",
          "code": "kg/m²"
        },
        "interpretation": [
          {
            "coding": [
              {
                "system": "http://terminology.hl7.org/CodeSystem/v3-ObservationInterpretation",
                "code": "N",
                "display": "Normal"
              }
            ],
            "text": "Normal"
          }
        ]
      },
      "request": {
        "method": "POST",
        "url": "Observation"
      }
    },
    {
      "fullUrl": "urn:uuid:fbe36a6b-5567-48d7-9c99-ea3db44a2e05",
      "resource": {
        "resourceType": "Observation",
        "id": "fbe36a6b-5567-48d7-9c99-ea3db44a2e05",
        "status": "final",
        "category": [
          {
            "coding": [
              {
                "system": "http://terminology.hl7.org/CodeSystem/observation-category",
                "code": "vital-signs",
                "display": "Vital Signs"
              }
            ],
            "text": "Vital Signs"
          }
        ],
        "code": {
          "coding": [
            {
              "system": "http://loinc.org",
              "code": "2717-7",
              "display": "OxyHgb MFr Plas"
            }
          ],
          "text": "oxygen saturation"
        },
        "subject": {
          "reference": "Patient/6379b308-1325-49c9-9ca8-c3246152701c"
        },
        "encounter": {
          "reference": "Encounter/c79098d0-0d2c-4f87-aa0b-ab516b796b13"
        },
        "effectiveDateTime": "2025-10-16",
        "valueQuantity": {
          "value": 98.0,
          "unit": "%",
          "system": "http://unitsofmeasure.org",
          "code": "%"
        },
        "interpretation": [
          {
            "coding": [
              {
                "system": "http://terminology.hl7.org/CodeSystem/v3-ObservationInterpretation",
                "code": "N",
                "display": "Normal"
              }
            ],
            "text": "Normal"
          }
        ]
      },
      "request": {
        "method": "POST",
        "url": "Observation"
      }
    },
    {
      "fullUrl": "urn:uuid:3aab9367-913b-4078-afd2-fe87ee1285c1",
      "resource": {
        "resourceType": "MedicationStatement",
        "id": "3aab9367-913b-4078-afd2-fe87ee1285c1",
        "status": "recorded",
        "medication": {
          "concept": {
            "coding": [
              {
                "system": "http://snomed.info/sct",
                "code": "387207008",
                "display": "Ibuprofen"
              }
            ],
            "text": "Ibuprofen"
          }
        },
        "subject": {
          "reference": "Patient/6379b308-1325-49c9-9ca8-c3246152701c"
        },
        "encounter": {
          "reference": "Encounter/c79098d0-0d2c-4f87-aa0b-ab516b796b13"
        },
        "effectiveDateTime": "2025-10-16",
        "informationSource": [
          {
            "reference": "Patient/6379b308-1325-49c9-9ca8-c3246152701c"
          }
        ],
        "dosage": [
          {
            "text": "400 mg as needed"
          }
        ]
      },
      "request": {
        "method": "POST",
        "url": "MedicationStatement"
      }
    },
    {
      "fullUrl": "urn:uuid:cb668710-ffe6-43b2-9a32-2c05a2bcadca",
      "resource": {
        "resourceType": "Encounter",
        "id": "cb668710-ffe6-43b2-9a32-2c05a2bcadca",
        "identifier": [
          {
            "use": "temp",
            "value": "Encounter_Emily Wilson_20251021094001"
          }
        ],
        "status": "completed",
        "priority": {
          "coding": [
            {
              "system": "http://snomed.info/sct",
              "code": "17621005",
              "display": "Normal"
            }
          ]
        },
        "type": [
          {
            "coding": [
              {
                "system": "http://snomed.info/sct",
                "code": "11429006",
                "display": "Consultation"
              }
            ]
          }
        ],
        "subject": {
          "reference": "Patient/6379b308-1325-49c9-9ca8-c3246152701c",
          "display": "Emily Wilson"
        },
        "reason": [
          {
            "value": [
              {
                "concept": {
                  "text": "similar episode"
                }
              }
            ]
          }
        ]
      },
      "request": {
        "method": "POST",
        "url": "Encounter"
      }
    },
    {
      "fullUrl": "urn:uuid:0d26350a-27bc-49e3-9996-40b9246f8ce4",
      "resource": {
        "resourceType": "Observation",
        "id": "0d26350a-27bc-49e3-9996-40b9246f8ce4",
        "status": "final",
        "category": [
          {
            "coding": [
              {
                "system": "http://terminology.hl7.org/CodeSystem/observation-category",
                "code": "laboratory",
                "display": "Laboratory"
              }
            ],
            "text": "Laboratory"
          }
        ],
        "code": {
          "coding": [
            {
              "system": "http://loinc.org",
              "code": "unknown",
              "display": "Erythrocyte Sedimentation Rate (ESR)"
            }
          ],
          "text": "Erythrocyte Sedimentation Rate (ESR)"
        },
        "subject": {
          "reference": "Patient/6379b308-1325-49c9-9ca8-c3246152701c"
        },
        "encounter": {
          "reference": "Encounter/cb668710-ffe6-43b2-9a32-2c05a2bcadca"
        },
        "effectiveDateTime": "2025-08-16"
      },
      "request": {
        "method": "POST",
        "url": "Observation"
      }
    },
    {
      "fullUrl": "urn:uuid:d411b0bf-476f-47c9-b552-28f2c5dfdd4f",
      "resource": {
        "resourceType": "Observation",
        "id": "d411b0bf-476f-47c9-b552-28f2c5dfdd4f",
        "status": "final",
        "category": [
          {
            "coding": [
              {
                "system": "http://terminology.hl7.org/CodeSystem/observation-category",
                "code": "laboratory",
                "display": "Laboratory"
              }
            ],
            "text": "Laboratory"
          }
        ],
        "code": {
          "coding": [
            {
              "system": "http://loinc.org",
              "code": "35648-5",
              "display": "CRP Quint SerPl Qn HS"
            }
          ],
          "text": "C-reactive protein (CRP)"
        },
        "subject": {
          "reference": "Patient/6379b308-1325-49c9-9ca8-c3246152701c"
        },
        "encounter": {
          "reference": "Encounter/cb668710-ffe6-43b2-9a32-2c05a2bcadca"
        },
        "effectiveDateTime": "2025-08-16",
        "note": [
          {
            "text": "Definition: https://loinc.org/35648-5/"
          }
        ]
      },
      "request": {
        "method": "POST",
        "url": "Observation"
      }
    },
    {
      "fullUrl": "urn:uuid:6c08d285-4dfc-460e-a931-9fdc5bc46422",
      "resource": {
        "resourceType": "List",
        "id": "6c08d285-4dfc-460e-a931-9fdc5bc46422",
        "contained": [
          {
            "resourceType": "FamilyMemberHistory",
            "id": "fmh-2",
            "status": "completed",
            "patient": {
              "reference": "Patient/6379b308-1325-49c9-9ca8-c3246152701c"
            },
            "relationship": {
              "coding": [
                {
                  "system": "http://snomed.info/sct",
                  "code": "394856008",
                  "display": "Paternal grandfather"
                }
              ]
            },
            "deceasedBoolean": true,
            "condition": [
              {
                "code": {
                  "coding": [
                    {
                      "system": "http://snomed.info/sct",
                      "code": "22298006",
                      "display": "Myocardial infarction"
                    }
                  ]
                },
                "outcome": {
                  "coding": [
                    {
                      "system": "http://snomed.info/sct",
                      "code": "876883006",
                      "display": "Died during operation"
                    }
                  ]
                }
              }
            ]
          }
        ],
        "status": "current",
        "mode": "snapshot",
        "code": {
          "coding": [
            {
              "system": "http://loinc.org",
              "code": "8670-2",
              "display": "History of family member diseases"
            }
          ]
        },
        "subject": [
          {
            "reference": "Patient/6379b308-1325-49c9-9ca8-c3246152701c"
          }
        ],
        "note": [
          {
            "text": "Both parents are alive and healthy otherwise."
          }
        ],
        "entry": [
          {
            "item": {
              "reference": "#fmh-2"
            }
          }
        ]
      },
      "request": {
        "method": "POST",
        "url": "FamilyMemberHistory"
      }
    }
  ]
}