{
  "resourceType": "Bundle",
  "type": "transaction",
  "entry": [
    {
      "fullUrl": "urn:uuid:2aaa2aaf-19f7-4b56-b936-8344f729eddf",
      "resource": {
        "resourceType": "Patient",
        "id": "2aaa2aaf-19f7-4b56-b936-8344f729eddf",
        "name": [
          {
            "family": "Wilson",
            "given": [
              "Emily"
            ]
          }
        ],
        "gender": "female",
        "birthDate": "1993-01-01",
        "address": [
          {}
        ]
      },
      "request": {
        "method": "POST",
        "url": "Patient"
      }
    },
    {
      "fullUrl": "urn:uuid:8b012c40-37f2-409f-94fa-1b8ce8f9b71e",
      "resource": {
        "resourceType": "Encounter",
        "id": "8b012c40-37f2-409f-94fa-1b8ce8f9b71e",
        "identifier": [
          {
            "use": "temp",
            "value": "Encounter_Emily Wilson_20251021094015"
          }
        ],
        "status": "completed",
        "priority": {
          "coding": [
            {
              "system": "http://snomed.info/sct",
              "code": "17621005",
              "display": "Normal"
            }
          ]
        },
        "type": [
          {
            "coding": [
              {
                "system": "http://snomed.info/sct",
                "code": "11429006",
                "display": "Consultation"
              }
            ]
          }
        ],
        "subject": {
          "reference": "Patient/2aaa2aaf-19f7-4b56-b936-8344f729eddf",
          "display": "Emily Wilson"
        },
        "reason": [
          {
            "value": [
              {
                "concept": {
                  "text": "recurring episodes of fever, rash, and joint pain"
                }
              }
            ]
          }
        ]
      },
      "request": {
        "method": "POST",
        "url": "Encounter"
      }
    },
    {
      "fullUrl": "urn:uuid:be2973e6-68b6-48b9-a808-a0cec5d73a80",
      "resource": {
        "resourceType": "Observation",
        "id": "be2973e6-68b6-48b9-a808-a0cec5d73a80",
        "status": "final",
        "category": [
          {
            "coding": [
              {
                "system": "http://terminology.hl7.org/CodeSystem/observation-category",
                "code": "laboratory",
                "display": "Laboratory"
              }
            ],
            "text": "Laboratory"
          }
        ],
        "code": {
          "coding": [
            {
              "system": "http://loinc.org",
              "code": "35648-5",
              "display": "CRP Quint SerPl Qn HS"
            }
          ],
          "text": "C-reactive protein"
        },
        "subject": {
          "reference": "Patient/2aaa2aaf-19f7-4b56-b936-8344f729eddf"
        },
        "encounter": {
          "reference": "Encounter/8b012c40-37f2-409f-94fa-1b8ce8f9b71e"
        },
        "effectiveDateTime": "2025-10-16",
        "valueQuantity": {
          "value": 12.0,
          "unit": "mg/L",
          "system": "http://unitsofmeasure.org",
          "code": "mg/L"
        },
        "interpretation": [
          {
            "coding": [
              {
                "system": "http://terminology.hl7.org/CodeSystem/v3-ObservationInterpretation",
                "code": "H",
                "display": "High"
              }
            ]
          }
        ],
        "note": [
          {
            "text": "Definition: https://loinc.org/35648-5/"
          }
        ]
      },
      "request": {
        "method": "POST",
        "url": "Observation"
      }
    },
    {
      "fullUrl": "urn:uuid:39b0fbba-0507-4334-9338-5353ab346d75",
      "resource": {
        "resourceType": "Observation",
        "id": "39b0fbba-0507-4334-9338-5353ab346d75",
        "status": "final",
        "category": [
          {
            "coding": [
              {
                "system": "http://terminology.hl7.org/CodeSystem/observation-category",
                "code": "laboratory",
                "display": "Laboratory"
              }
            ],
            "text": "Laboratory"
          }
        ],
        "code": {
          "coding": [
            {
              "system": "http://loinc.org",
              "code": "30341-2",
              "display": "Erythrocyte Sed Rat Bld"
            }
          ],
          "text": "erythrocyte sedimentation rate"
        },
        "subject": {
          "reference": "Patient/2aaa2aaf-19f7-4b56-b936-8344f729eddf"
        },
        "encounter": {
          "reference": "Encounter/8b012c40-37f2-409f-94fa-1b8ce8f9b71e"
        },
        "effectiveDateTime": "2025-10-16",
        "valueQuantity": {
          "value": 25.0,
          "unit": "mm/h",
          "system": "http://unitsofmeasure.org",
          "code": "mm/h"
        },
        "interpretation": [
          {
            "coding": [
              {
                "system": "http://terminology.hl7.org/CodeSystem/v3-ObservationInterpretation",
                "code": "H",
                "display": "High"
              }
            ]
          }
        ],
        "note": [
          {
            "text": "Definition: https://loinc.org/30341-2/"
          }
        ]
      },
      "request": {
        "method": "POST",
        "url": "Observation"
      }
    },
    {
      "fullUrl": "urn:uuid:da6d68af-d9dc-4762-87b9-ea36b0d24186",
      "resource": {
        "resourceType": "Observation",
        "id": "da6d68af-d9dc-4762-87b9-ea36b0d24186",
        "status": "final",
        "category": [
          {
            "coding": [
              {
                "system": "http://terminology.hl7.org/CodeSystem/observation-category",
                "code": "laboratory",
                "display": "Laboratory"
              }
            ],
            "text": "Laboratory"
          }
        ],
        "code": {
          "coding": [
            {
              "system": "http://loinc.org",
              "code": "58410-2",
              "display": "Complete blood count panel"
            }
          ],
          "text": "complete blood count"
        },
        "subject": {
          "reference": "Patient/2aaa2aaf-19f7-4b56-b936-8344f729eddf"
        },
        "encounter": {
          "reference": "Encounter/8b012c40-37f2-409f-94fa-1b8ce8f9b71e"
        },
        "effectiveDateTime": "2025-10-16",
        "interpretation": [
          {
            "coding": [
              {
                "system": "http://terminology.hl7.org/CodeSystem/v3-ObservationInterpretation",
                "code": "N",
                "display": "Normal"
              }
            ]
          }
        ],
        "note": [
          {
            "text": "Definition: https://loinc.org/58410-2/"
          }
        ]
      },
      "request": {
        "method": "POST",
        "url": "Observation"
      }
    },
    {
      "fullUrl": "urn:uuid:2714feaa-4a61-4977-b127-be9a3b51a3d1",
      "resource": {
        "resourceType": "Observation",
        "id": "2714feaa-4a61-4977-b127-be9a3b51a3d1",
        "status": "final",
        "category": [
          {
            "coding": [
              {
                "system": "http://terminology.hl7.org/CodeSystem/observation-category",
                "code": "laboratory",
                "display": "Laboratory"
              }
            ],
            "text": "Laboratory"
          }
        ],
        "code": {
          "coding": [
            {
              "system": "http://loinc.org",
              "code": "unknown",
              "display": "liver function tests"
            }
          ],
          "text": "liver function tests"
        },
        "subject": {
          "reference": "Patient/2aaa2aaf-19f7-4b56-b936-8344f729eddf"
        },
        "encounter": {
          "reference": "Encounter/8b012c40-37f2-409f-94fa-1b8ce8f9b71e"
        },
        "effectiveDateTime": "2025-10-16",
        "interpretation": [
          {
            "coding": [
              {
                "system": "http://terminology.hl7.org/CodeSystem/v3-ObservationInterpretation",
                "code": "N",
                "display": "Normal"
              }
            ]
          }
        ]
      },
      "request": {
        "method": "POST",
        "url": "Observation"
      }
    },
    {
      "fullUrl": "urn:uuid:e32073ef-9a06-4592-a68d-9fa002944d50",
      "resource": {
        "resourceType": "Observation",
        "id": "e32073ef-9a06-4592-a68d-9fa002944d50",
        "status": "final",
        "category": [
          {
            "coding": [
              {
                "system": "http://terminology.hl7.org/CodeSystem/observation-category",
                "code": "exam",
                "display": "Exam"
              }
            ],
            "text": "Exam"
          }
        ],
        "code": {
          "coding": [
            {
              "system": "http://snomed.info/sct",
              "code": "386661006",
              "display": "Fever"
            }
          ],
          "text": "fever"
        },
        "subject": {
          "reference": "Patient/2aaa2aaf-19f7-4b56-b936-8344f729eddf"
        },
        "encounter": {
          "reference": "Encounter/8b012c40-37f2-409f-94fa-1b8ce8f9b71e"
        },
        "effectivePeriod": {
          "start": "2025-10-16"
        },
        "valueBoolean": true,
        "note": [
          {
            "text": "Definition: https://snomed.info/id/386661006"
          }
        ]
      },
      "request": {
        "method": "POST",
        "url": "Observation"
      }
    },
    {
      "fullUrl": "urn:uuid:b3ea8b73-2b8a-4c1c-a6f5-79561a4d0191",
      "resource": {
        "resourceType": "Observation",
        "id": "b3ea8b73-2b8a-4c1c-a6f5-79561a4d0191",
        "status": "final",
        "category": [
          {
            "coding": [
              {
                "system": "http://terminology.hl7.org/CodeSystem/observation-category",
                "code": "exam",
                "display": "Exam"
              }
            ],
            "text": "Exam"
          }
        ],
        "code": {
          "coding": [
            {
              "system": "http://snomed.info/sct",
              "code": "89757007",
              "display": "Macular rash"
            }
          ],
          "text": "rash"
        },
        "subject": {
          "reference": "Patient/2aaa2aaf-19f7-4b56-b936-8344f729eddf"
        },
        "encounter": {
          "reference": "Encounter/8b012c40-37f2-409f-94fa-1b8ce8f9b71e"
        },
        "effectivePeriod": {
          "start": "2025-10-16"
        },
        "valueBoolean": true,
        "note": [
          {
            "text": "Definition: https://snomed.info/id/89757007"
          }
        ]
      },
      "request": {
        "method": "POST",
        "url": "Observation"
      }
    },
    {
      "fullUrl": "urn:uuid:3f27b503-580d-4d4c-bbd1-62019973442e",
      "resource": {
        "resourceType": "Observation",
        "id": "3f27b503-580d-4d4c-bbd1-62019973442e",
        "status": "final",
        "category": [
          {
            "coding": [
              {
                "system": "http://terminology.hl7.org/CodeSystem/observation-category",
                "code": "exam",
                "display": "Exam"
              }
            ],
            "text": "Exam"
          }
        ],
        "code": {
          "coding": [
            {
              "system": "http://snomed.info/sct",
              "code": "57676002",
              "display": "Joint pain"
            }
          ],
          "text": "joint pain"
        },
        "subject": {
          "reference": "Patient/2aaa2aaf-19f7-4b56-b936-8344f729eddf"
        },
        "encounter": {
          "reference": "Encounter/8b012c40-37f2-409f-94fa-1b8ce8f9b71e"
        },
        "effectivePeriod": {
          "start": "2025-10-16"
        },
        "valueBoolean": true,
        "note": [
          {
            "text": "Definition: https://snomed.info/id/57676002"
          }
        ]
      },
      "request": {
        "method": "POST",
        "url": "Observation"
      }
    },
    {
      "fullUrl": "urn:uuid:7abfc4c5-0f4c-4584-b971-0f19c1f540dc",
      "resource": {
        "resourceType": "Observation",
        "id": "7abfc4c5-0f4c-4584-b971-0f19c1f540dc",
        "status": "final",
        "category": [
          {
            "coding": [
              {
                "system": "http://terminology.hl7.org/CodeSystem/observation-category",
                "code": "vital-signs",
                "display": "Vital Signs"
              }
            ],
            "text": "Vital Signs"
          }
        ],
        "code": {
          "coding": [
            {
              "system": "http://loinc.org",
              "code": "8310-5",
              "display": "Body temperature"
            }
          ],
          "text": "temperature"
        },
        "subject": {
          "reference": "Patient/2aaa2aaf-19f7-4b56-b936-8344f729eddf"
        },
        "encounter": {
          "reference": "Encounter/8b012c40-37f2-409f-94fa-1b8ce8f9b71e"
        },
        "effectiveDateTime": "2025-10-16",
        "valueQuantity": {
          "value": 37.2,
          "unit": "°C",
          "system": "http://unitsofmeasure.org",
          "code": "°C"
        },
        "interpretation": [
          {
            "coding": [
              {
                "system": "http://terminology.hl7.org/CodeSystem/v3-ObservationInterpretation",
                "code": "N",
                "display": "Normal"
              }
            ],
            "text": "Normal"
          }
        ]
      },
      "request": {
        "method": "POST",
        "url": "Observation"
      }
    },
    {
      "fullUrl": "urn:uuid:b4af697f-68f0-4af8-8a6a-4699eaf68981",
      "resource": {
        "resourceType": "Observation",
        "id": "b4af697f-68f0-4af8-8a6a-4699eaf68981",
        "status": "final",
        "category": [
          {
            "coding": [
              {
                "system": "http://terminology.hl7.org/CodeSystem/observation-category",
                "code": "vital-signs",
                "display": "Vital Signs"
              }
            ],
            "text": "Vital Signs"
          }
        ],
        "code": {
          "coding": [
            {
              "system": "http://loinc.org",
              "code": "62733-1",
              "display": "PhenX - respiratory - pulse oximetry - rest protocol 091101"
            }
          ],
          "text": "pulse"
        },
        "subject": {
          "reference": "Patient/2aaa2aaf-19f7-4b56-b936-8344f729eddf"
        },
        "encounter": {
          "reference": "Encounter/8b012c40-37f2-409f-94fa-1b8ce8f9b71e"
        },
        "effectiveDateTime": "2025-10-16",
        "valueQuantity": {
          "value": 82.0,
          "unit": "bpm",
          "system": "http://unitsofmeasure.org",
          "code": "bpm"
        },
        "interpretation": [
          {
            "coding": [
              {
                "system": "http://terminology.hl7.org/CodeSystem/v3-ObservationInterpretation",
                "code": "N",
                "display": "Normal"
              }
            ],
            "text": "Normal"
          }
        ]
      },
      "request": {
        "method": "POST",
        "url": "Observation"
      }
    },
    {
      "fullUrl": "urn:uuid:67342580-36ff-42a5-af8c-95eab6980681",
      "resource": {
        "resourceType": "Observation",
        "id": "67342580-36ff-42a5-af8c-95eab6980681",
        "status": "final",
        "category": [
          {
            "coding": [
              {
                "system": "http://terminology.hl7.org/CodeSystem/observation-category",
                "code": "vital-signs",
                "display": "Vital Signs"
              }
            ],
            "text": "Vital Signs"
          }
        ],
        "code": {
          "coding": [
            {
              "system": "http://loinc.org",
              "code": "18684-1",
              "display": "Blood pressure"
            }
          ],
          "text": "blood pressure"
        },
        "subject": {
          "reference": "Patient/2aaa2aaf-19f7-4b56-b936-8344f729eddf"
        },
        "encounter": {
          "reference": "Encounter/8b012c40-37f2-409f-94fa-1b8ce8f9b71e"
        },
        "effectiveDateTime": "2025-10-16",
        "interpretation": [
          {
            "coding": [
              {
                "system": "http://terminology.hl7.org/CodeSystem/v3-ObservationInterpretation",
                "code": "N",
                "display": "Normal"
              }
            ],
            "text": "Normal"
          }
        ]
      },
      "request": {
        "method": "POST",
        "url": "Observation"
      }
    },
    {
      "fullUrl": "urn:uuid:d39465f9-d622-4f60-98e7-e067bb82db3a",
      "resource": {
        "resourceType": "Observation",
        "id": "d39465f9-d622-4f60-98e7-e067bb82db3a",
        "status": "final",
        "category": [
          {
            "coding": [
              {
                "system": "http://terminology.hl7.org/CodeSystem/observation-category",
                "code": "vital-signs",
                "display": "Vital Signs"
              }
            ],
            "text": "Vital Signs"
          }
        ],
        "code": {
          "coding": [
            {
              "system": "http://loinc.org",
              "code": "2717-7",
              "display": "OxyHgb MFr Plas"
            }
          ],
          "text": "oxygen saturation"
        },
        "subject": {
          "reference": "Patient/2aaa2aaf-19f7-4b56-b936-8344f729eddf"
        },
        "encounter": {
          "reference": "Encounter/8b012c40-37f2-409f-94fa-1b8ce8f9b71e"
        },
        "effectiveDateTime": "2025-10-16",
        "valueQuantity": {
          "value": 98.0,
          "unit": "%",
          "system": "http://unitsofmeasure.org",
          "code": "%"
        },
        "interpretation": [
          {
            "coding": [
              {
                "system": "http://terminology.hl7.org/CodeSystem/v3-ObservationInterpretation",
                "code": "N",
                "display": "Normal"
              }
            ],
            "text": "Normal"
          }
        ]
      },
      "request": {
        "method": "POST",
        "url": "Observation"
      }
    },
    {
      "fullUrl": "urn:uuid:7cc68f80-05ee-4668-9656-bc7a164a3797",
      "resource": {
        "resourceType": "MedicationStatement",
        "id": "7cc68f80-05ee-4668-9656-bc7a164a3797",
        "status": "recorded",
        "medication": {
          "concept": {
            "coding": [
              {
                "system": "http://snomed.info/sct",
                "code": "387207008",
                "display": "Ibuprofen"
              }
            ],
            "text": "ibuprofen"
          }
        },
        "subject": {
          "reference": "Patient/2aaa2aaf-19f7-4b56-b936-8344f729eddf"
        },
        "encounter": {
          "reference": "Encounter/8b012c40-37f2-409f-94fa-1b8ce8f9b71e"
        },
        "effectiveDateTime": "2025-10-16",
        "informationSource": [
          {
            "reference": "Patient/2aaa2aaf-19f7-4b56-b936-8344f729eddf"
          }
        ],
        "dosage": [
          {
            "text": "400 mg as needed"
          }
        ],
        "adherence": {
          "code": {
            "coding": [
              {
                "system": "http://hl7.org/fhir/CodeSystem/medication-statement-adherence",
                "code": "taking",
                "display": "Taking"
              }
            ]
          }
        }
      },
      "request": {
        "method": "POST",
        "url": "MedicationStatement"
      }
    },
    {
      "fullUrl": "urn:uuid:48d9770b-1d99-4a1f-b1aa-80f1dd0a40d9",
      "resource": {
        "resourceType": "Encounter",
        "id": "48d9770b-1d99-4a1f-b1aa-80f1dd0a40d9",
        "identifier": [
          {
            "use": "temp",
            "value": "Encounter_Emily Wilson_20251021094025"
          }
        ],
        "status": "completed",
        "priority": {
          "coding": [
            {
              "system": "http://snomed.info/sct",
              "code": "17621005",
              "display": "Normal"
            }
          ]
        },
        "type": [
          {
            "coding": [
              {
                "system": "http://snomed.info/sct",
                "code": "11429006",
                "display": "Consultation"
              }
            ]
          }
        ],
        "subject": {
          "reference": "Patient/2aaa2aaf-19f7-4b56-b936-8344f729eddf",
          "display": "Emily Wilson"
        },
        "reason": [
          {
            "value": [
              {
                "concept": {
                  "text": "similar episode"
                }
              }
            ]
          }
        ]
      },
      "request": {
        "method": "POST",
        "url": "Encounter"
      }
    },
    {
      "fullUrl": "urn:uuid:8a6d9523-5b69-4fda-b0cf-ef828e5102e6",
      "resource": {
        "resourceType": "List",
        "id": "8a6d9523-5b69-4fda-b0cf-ef828e5102e6",
        "contained": [
          {
            "resourceType": "FamilyMemberHistory",
            "id": "fmh-2",
            "status": "completed",
            "patient": {
              "reference": "Patient/2aaa2aaf-19f7-4b56-b936-8344f729eddf"
            },
            "relationship": {
              "coding": [
                {
                  "system": "http://snomed.info/sct",
                  "code": "66839005",
                  "display": "Father"
                }
              ]
            },
            "deceasedBoolean": false,
            "condition": []
          }
        ],
        "status": "current",
        "mode": "snapshot",
        "code": {
          "coding": [
            {
              "system": "http://loinc.org",
              "code": "8670-2",
              "display": "History of family member diseases"
            }
          ]
        },
        "subject": [
          {
            "reference": "Patient/2aaa2aaf-19f7-4b56-b936-8344f729eddf"
          }
        ],
        "entry": [
          {
            "item": {
              "reference": "#fmh-2"
            }
          }
        ]
      },
      "request": {
        "method": "POST",
        "url": "FamilyMemberHistory"
      }
    }
  ]
}